"subID","keyboard_condition","trial_type","trial_number","correct_num","response_num","response_rt","correct_space","response_space","probe_space","correct_width","response_width","probe_width","adjustment_duration","stim_length","exp_version","number_deviation","width_deviation","spacing_deviation","number_deviation_ratio","width_deviation_ration","spacing_deviation_ratio","response_stim_length","compression_rate","actual_pooled_width","response_pooled_width","pooled_width_deviation","actual_width_density","response_width_density","width_density_deviation","actual_edge_to_edge_spacing","response_edge_to_edge_spacing","edge_to_edge_spacing_deviation","width_deviation_relative","spacing_deviation_relative","corrected_width_deviation","corrected_width_deviation_relative","spacing"
"701","left_right_width","match",1,3,3,1.85455150017515,2.2,1.1,0.7,0.4,0.15,0.4,5.68301720009185,4.8,"exp1",0,-0.25,-1.1,0,0.375,0.5,2.35,0.489583333333333,1.2,0.45,-0.75,0.25,0.191489361702128,-0.0585106382978723,1.8,0.95,-0.85,-0.625,-0.5,NA,NA,"large"
"701","left_right_width","initial",2,5,4,1.39508930011652,0.7,0.9,0.9,0.25,0.2,0.2,2.12214220012538,3.05,"exp1",-1,-0.05,0.2,-0.2,0.8,1.28571428571429,2.9,0.950819672131148,1.25,0.8,-0.45,0.409836065573771,0.275862068965517,-0.133973996608253,0.45,0.7,0.25,-0.2,0.285714285714286,NA,NA,"small"
"701","left_right_width","initial",3,4,4,1.58033619984053,1.1,0.8,0.7,0.25,0.15,0.4,5.91621809988283,3.55,"exp1",0,-0.0999999999999999,-0.3,0,0.6,0.727272727272727,2.55,0.71830985915493,1,0.6,-0.4,0.28169014084507,0.235294117647059,-0.0463960231980114,0.85,0.65,-0.2,-0.4,-0.272727272727273,NA,NA,"large"
"701","left_right_width","initial",4,4,4,2.04115549987182,0.7,0.8,0.8,0.55,0.55,0.45,3.3341465999838,2.65,"exp1",0,0,0.1,0,1,1.14285714285714,2.95,1.11320754716981,2.2,2.2,0,0.830188679245283,0.745762711864407,-0.0844259673808764,0.15,0.25,0.1,0,0.142857142857143,NA,NA,"small"
"701","left_right_width","match",6,3,3,1.28388179978356,1.8,1.3,0.7,0.4,0.25,0.15,6.51104800007306,4,"exp1",0,-0.15,-0.5,0,0.625,0.722222222222222,2.85,0.7125,1.2,0.75,-0.45,0.3,0.263157894736842,-0.036842105263158,1.4,1.05,-0.35,-0.375,-0.277777777777778,NA,NA,"large"
"701","left_right_width","initial",7,4,4,2.17399320006371,1.1,1.7,0.8,0.4,0.2,0.3,4.96557080000639,3.7,"exp1",0,-0.2,0.6,0,0.5,1.54545454545455,5.3,1.43243243243243,1.6,0.8,-0.8,0.432432432432432,0.150943396226415,-0.281489036206017,0.7,1.5,0.8,-0.5,0.545454545454545,NA,NA,"large"
"701","left_right_width","initial",8,5,4,2.19425980001688,0.9,0.8,0.8,0.55,0.45,0.45,1.57770370016806,4.15,"exp1",-1,-0.1,-0.1,-0.2,0.818181818181818,0.888888888888889,2.85,0.686746987951807,2.75,1.8,-0.95,0.662650602409638,0.631578947368421,-0.0310716550412176,0.35,0.35,5.55111512312578e-17,-0.181818181818182,-0.111111111111111,NA,NA,"middle"
"701","left_right_width","match",9,3,3,1.10757280001417,1.8,1.2,0.8,0.55,0.35,0.45,5.4146538998466,4.15,"exp1",0,-0.2,-0.6,0,0.636363636363636,0.666666666666667,2.75,0.662650602409638,1.65,1.05,-0.6,0.397590361445783,0.381818181818182,-0.0157721796276013,1.25,0.85,-0.4,-0.363636363636364,-0.333333333333333,NA,NA,"large"
"701","left_right_width","match",10,3,4,1.87901440006681,2.2,1.1,0.7,0.25,0.15,0.45,5.75479330006056,4.65,"exp1",1,-0.0999999999999999,-1.1,0.333333333333333,0.6,0.5,3.45,0.741935483870968,0.75,0.6,-0.15,0.161290322580645,0.173913043478261,0.0126227208976158,1.95,0.95,-1,-0.4,-0.5,NA,NA,"large"
"701","left_right_width","initial",11,4,3,1.29782199999318,0.9,1.05,0.9,0.55,0.5,0.3,5.05264709983021,3.25,"exp1",-1,-0.0500000000000001,0.15,-0.25,0.909090909090909,1.16666666666667,2.6,0.8,2.2,1.5,-0.7,0.676923076923077,0.576923076923077,-0.1,0.35,0.55,0.2,-0.0909090909090911,0.166666666666667,NA,NA,"middle"
"701","left_right_width","match",12,4,4,1.2221368001774,0.466666666666667,0.5,1.3,0.4,0.3,0.25,5.79639459983446,1.8,"exp1",0,-0.1,0.0333333333333333,0,0.75,1.07142857142857,1.8,1,1.6,1.2,-0.4,0.888888888888889,0.666666666666667,-0.222222222222222,0.0666666666666667,0.2,0.133333333333333,-0.25,0.0714285714285714,NA,NA,"small"
"701","left_right_width","match",13,5,5,1.36390260001644,0.675,0.6,1,0.55,0.35,0.15,5.30806139996275,3.25,"exp1",0,-0.2,-0.0750000000000001,0,0.636363636363636,0.888888888888889,2.75,0.846153846153846,2.75,1.75,-1,0.846153846153846,0.636363636363636,-0.20979020979021,0.125,0.25,0.125,-0.363636363636364,-0.111111111111111,NA,NA,"small"
"701","left_right_width","initial",14,3,3,1.09287939989008,1.1,1,1.3,0.25,0.2,0.2,4.45608710008673,2.45,"exp1",0,-0.05,-0.1,0,0.8,0.909090909090909,2.2,0.897959183673469,0.75,0.6,-0.15,0.306122448979592,0.272727272727273,-0.033395176252319,0.85,0.8,-0.05,-0.2,-0.090909090909091,NA,NA,"large"
"701","left_right_width","initial",15,3,3,1.12905069999397,0.7,1,1.3,0.4,0.45,0.45,2.21881090011448,1.8,"exp1",0,0.05,0.3,0,1.125,1.42857142857143,2.45,1.36111111111111,1.2,1.35,0.15,0.666666666666667,0.551020408163265,-0.115646258503401,0.3,0.55,0.25,0.125,0.428571428571429,NA,NA,"small"
"701","left_right_width","match",16,4,4,1.48782209982164,0.6,0.4,0.4,0.55,0.35,0.35,4.21120190015063,2.35,"exp1",0,-0.2,-0.2,0,0.636363636363636,0.666666666666667,1.55,0.659574468085106,2.2,1.4,-0.8,0.936170212765957,0.903225806451613,-0.0329444063143448,0.0499999999999999,0.05,1.11022302462516e-16,-0.363636363636364,-0.333333333333333,NA,NA,"small"
"701","left_right_width","initial",17,5,5,1.07362550008111,1.1,0.8,0.8,0.25,0.2,0.2,1.31750459992327,4.65,"exp1",0,-0.05,-0.3,0,0.8,0.727272727272727,3.4,0.731182795698925,1.25,1,-0.25,0.268817204301075,0.294117647058823,0.0253004427577482,0.85,0.6,-0.25,-0.2,-0.272727272727273,NA,NA,"large"
"701","left_right_width","match",18,4,4,1.04435699991882,0.6,0.9,0.5,0.25,0.15,0.45,5.86570670013316,2.05,"exp1",0,-0.0999999999999999,0.3,0,0.6,1.5,2.85,1.39024390243902,1,0.6,-0.4,0.487804878048781,0.210526315789474,-0.277278562259307,0.35,0.75,0.4,-0.4,0.5,NA,NA,"small"
"701","left_right_width","initial",19,3,3,1.17634800006635,0.7,0.65,0.5,0.25,0.2,0.35,5.12840480008163,1.65,"exp1",0,-0.05,-0.0499999999999999,0,0.8,0.928571428571429,1.5,0.909090909090909,0.75,0.6,-0.15,0.454545454545455,0.4,-0.0545454545454545,0.45,0.45,5.55111512312578e-17,-0.2,-0.0714285714285713,NA,NA,"small"
"701","left_right_width","match",20,4,4,0.978429599897936,0.466666666666667,0.7,1.2,0.25,0.2,0.1,5.24236940010451,1.65,"exp1",0,-0.05,0.233333333333333,0,0.8,1.5,2.3,1.39393939393939,1,0.8,-0.2,0.606060606060606,0.347826086956522,-0.258234519104084,0.216666666666667,0.5,0.283333333333333,-0.2,0.5,NA,NA,"small"
"701","left_right_width","match",21,5,5,1.07389570004307,0.8625,0.75,1.2,0.25,0.2,0.35,5.87770239985548,3.7,"exp1",0,-0.05,-0.1125,0,0.8,0.869565217391304,3.2,0.864864864864865,1.25,1,-0.25,0.337837837837838,0.3125,-0.0253378378378378,0.6125,0.55,-0.0625,-0.2,-0.130434782608696,NA,NA,"middle"
"701","left_right_width","initial",22,5,5,1.06974020018242,0.9,0.9,0.9,0.4,0.35,0.25,5.24884059978649,4,"exp1",0,-0.05,0,0,0.875,1,3.95,0.9875,2,1.75,-0.25,0.5,0.443037974683544,-0.0569620253164557,0.5,0.55,0.05,-0.125,0,NA,NA,"middle"
"701","left_right_width","initial",23,5,5,0.877275400096551,0.7,0.55,0.6,0.55,0.4,0.3,3.94507929985411,3.35,"exp1",0,-0.15,-0.15,0,0.727272727272727,0.785714285714286,2.6,0.776119402985075,2.75,2,-0.75,0.82089552238806,0.769230769230769,-0.0516647531572906,0.15,0.15,1.66533453693773e-16,-0.272727272727273,-0.214285714285714,NA,NA,"small"
"701","left_right_width","match",24,3,3,1.10827870015055,2.2,1.4,1,0.55,0.7,0.25,6.07082109991461,4.95,"exp1",0,0.15,-0.8,0,1.27272727272727,0.636363636363636,3.5,0.707070707070707,1.65,2.1,0.45,0.333333333333333,0.6,0.266666666666667,1.65,0.7,-0.95,0.272727272727273,-0.363636363636364,NA,NA,"large"
"701","left_right_width","initial",25,5,5,1.28143109986559,0.9,0.9,0.9,0.25,0.15,0.3,2.34893339988776,3.85,"exp1",0,-0.1,0,0,0.6,1,3.75,0.974025974025974,1.25,0.75,-0.5,0.324675324675325,0.2,-0.124675324675325,0.65,0.75,0.1,-0.4,0,NA,NA,"middle"
"701","left_right_width","match",26,3,3,1.0322624000255,1.8,1.35,0.6,0.25,0.1,0.45,8.44644189998507,3.85,"exp1",0,-0.15,-0.45,0,0.4,0.75,2.8,0.727272727272727,0.75,0.3,-0.45,0.194805194805195,0.107142857142857,-0.0876623376623376,1.55,1.25,-0.3,-0.6,-0.25,NA,NA,"large"
"701","left_right_width","initial",27,5,4,1.59799809986725,0.7,0.7,0.9,0.4,0.4,0.1,4.46119610010646,3.2,"exp1",-1,-5.55111512312578e-17,0,-0.2,1,1,2.5,0.78125,2,1.6,-0.4,0.625,0.64,0.015,0.3,0.3,5.55111512312578e-17,-1.38777878078145e-16,0,NA,NA,"small"
"701","left_right_width","initial",28,3,3,1.16556730004959,1.1,1.1,1.1,0.55,0.55,0.45,3.49126639985479,2.75,"exp1",0,0,0,0,1,1,2.75,1,1.65,1.65,0,0.6,0.6,0,0.55,0.55,0,0,0,NA,NA,"large"
"701","left_right_width","match",29,5,4,0.981535499915481,0.525,0.6,0.6,0.25,0.15,0.15,0.945991199929267,2.35,"exp1",-1,-0.1,0.075,-0.2,0.6,1.14285714285714,1.95,0.829787234042553,1.25,0.6,-0.65,0.531914893617021,0.307692307692308,-0.224222585924714,0.275,0.45,0.175,-0.4,0.142857142857143,NA,NA,"small"
"701","left_right_width","initial",30,4,3,1.06616219994612,0.7,0.75,0.8,0.4,0.5,0.4,4.80488410010003,2.5,"exp1",-1,0.1,0.05,-0.25,1.25,1.07142857142857,2,0.8,1.6,1.5,-0.1,0.64,0.75,0.11,0.3,0.25,-0.0499999999999999,0.25,0.0714285714285715,NA,NA,"small"
"701","left_right_width","match",31,5,5,2.16164200007915,0.825,0.6,0.6,0.25,0.1,0.45,5.38608460011892,3.55,"exp1",0,-0.15,-0.225,0,0.4,0.727272727272727,2.5,0.704225352112676,1.25,0.5,-0.75,0.352112676056338,0.2,-0.152112676056338,0.575,0.5,-0.0750000000000001,-0.6,-0.272727272727273,NA,NA,"middle"
"701","left_right_width","match",32,5,4,1.78217189991847,0.525,0.7,1,0.4,0.5,0.45,2.97453490016051,2.5,"exp1",-1,0.1,0.175,-0.2,1.25,1.33333333333333,2.6,1.04,2,2,0,0.8,0.769230769230769,-0.0307692307692307,0.125,0.2,0.075,0.25,0.333333333333333,NA,NA,"small"
"701","left_right_width","match",33,4,4,1.09213389991783,0.733333333333333,0.9,1,0.55,0.65,0.2,5.04727629991248,2.75,"exp1",0,0.1,0.166666666666667,0,1.18181818181818,1.22727272727273,3.35,1.21818181818182,2.2,2.6,0.4,0.8,0.776119402985075,-0.0238805970149254,0.183333333333333,0.25,0.0666666666666668,0.181818181818182,0.227272727272727,NA,NA,"small"
"701","left_right_width","match",34,5,5,1.34292189986445,0.675,0.7,0.7,0.25,0.3,0.3,1.28826529998332,2.95,"exp1",0,0.05,0.0249999999999999,0,1.2,1.03703703703704,3.1,1.05084745762712,1.25,1.5,0.25,0.423728813559322,0.483870967741936,0.0601421541826135,0.425,0.4,-0.0250000000000001,0.2,0.0370370370370369,NA,NA,"small"
"701","left_right_width","match",35,5,5,1.98150150012225,0.675,0.7,0.7,0.4,0.35,0.1,3.32569519989192,3.1,"exp1",0,-0.05,0.0249999999999999,0,0.875,1.03703703703704,3.15,1.01612903225806,2,1.75,-0.25,0.645161290322581,0.555555555555556,-0.089605734767025,0.275,0.35,0.075,-0.125,0.0370370370370369,NA,NA,"small"
"701","left_right_width","initial",36,4,4,1.03977670008317,0.9,0.7,0.8,0.25,0.1,0.35,2.62910570017993,2.95,"exp1",0,-0.15,-0.2,0,0.4,0.777777777777778,2.2,0.745762711864407,1,0.4,-0.6,0.338983050847458,0.181818181818182,-0.157164869029276,0.65,0.6,-0.05,-0.6,-0.222222222222222,NA,NA,"middle"
"701","left_right_width","match",37,4,4,0.787156600039452,0.733333333333333,0.5,0.7,0.25,0.15,0.2,5.18620819994248,2.45,"exp1",0,-0.1,-0.233333333333333,0,0.6,0.681818181818182,1.65,0.673469387755102,1,0.6,-0.4,0.408163265306122,0.363636363636364,-0.0445269016697587,0.483333333333333,0.35,-0.133333333333333,-0.4,-0.318181818181818,NA,NA,"small"
"701","left_right_width","initial",38,5,4,0.992545099928975,1.1,0.9,0.6,0.55,0.5,0.1,5.83162799989805,4.95,"exp1",-1,-0.0500000000000001,-0.2,-0.2,0.909090909090909,0.818181818181818,3.2,0.646464646464647,2.75,2,-0.75,0.555555555555556,0.625,0.0694444444444443,0.55,0.4,-0.15,-0.0909090909090911,-0.181818181818182,NA,NA,"large"
"701","left_right_width","initial",39,4,4,0.997858100105077,0.9,0.7,0.6,0.4,0.3,0.25,3.22894049994648,3.1,"exp1",0,-0.1,-0.2,0,0.75,0.777777777777778,2.4,0.774193548387097,1.6,1.2,-0.4,0.516129032258065,0.5,-0.0161290322580644,0.5,0.4,-0.1,-0.25,-0.222222222222222,NA,NA,"middle"
"701","left_right_width","match",40,5,4,1.30104589997791,0.825,0.9,0.8,0.55,0.55,0.4,3.61576660000719,3.85,"exp1",-1,0,0.075,-0.2,1,1.09090909090909,3.25,0.844155844155844,2.75,2.2,-0.55,0.714285714285714,0.676923076923077,-0.0373626373626373,0.275,0.35,0.075,0,0.0909090909090908,NA,NA,"middle"
"701","left_right_width","initial",41,3,3,1.1265736001078,1.1,0.95,1,0.4,0.6,0.15,4.48804920003749,2.6,"exp1",0,0.2,-0.15,0,1.5,0.863636363636364,2.5,0.961538461538461,1.2,1.8,0.6,0.461538461538462,0.72,0.258461538461538,0.7,0.35,-0.35,0.5,-0.136363636363636,NA,NA,"large"
"701","left_right_width","initial",42,3,3,1.27557489997707,0.9,0.85,1,0.25,0.2,0.45,2.93549500009976,2.05,"exp1",0,-0.0499999999999999,-0.05,0,0.8,0.944444444444444,1.9,0.926829268292683,0.75,0.6,-0.15,0.365853658536585,0.315789473684211,-0.0500641848523748,0.65,0.65,-1.11022302462516e-16,-0.2,-0.0555555555555556,NA,NA,"middle"
"701","left_right_width","match",43,4,3,0.959764699917287,0.6,1.05,1.1,0.4,0.65,0.35,4.15218850015663,2.2,"exp1",-1,0.25,0.45,-0.25,1.625,1.75,2.75,1.25,1.6,1.95,0.35,0.727272727272727,0.709090909090909,-0.0181818181818182,0.2,0.4,0.2,0.625,0.75,NA,NA,"small"
"701","left_right_width","match",44,4,4,1.2278533000499,0.783333333333333,0.9,0.9,0.25,0.2,0.2,0.941789699951187,2.6,"exp1",0,-0.05,0.116666666666667,0,0.8,1.14893617021277,2.9,1.11538461538462,1,0.8,-0.2,0.384615384615385,0.275862068965517,-0.108753315649867,0.533333333333333,0.7,0.166666666666667,-0.2,0.148936170212766,NA,NA,"small"
"701","left_right_width","match",45,3,3,0.832237900001928,1.4,1.05,0.4,0.55,0.7,0.35,7.27847060002387,3.35,"exp1",0,0.15,-0.35,0,1.27272727272727,0.75,2.8,0.835820895522388,1.65,2.1,0.45,0.492537313432836,0.75,0.257462686567164,0.85,0.35,-0.5,0.272727272727273,-0.25,NA,NA,"large"
"701","left_right_width","initial",46,4,3,0.892551600001752,0.7,0.9,0.6,0.25,0.25,0.3,4.72777200001292,2.35,"exp1",-1,0,0.2,-0.25,1,1.28571428571429,2.05,0.872340425531915,1,0.75,-0.25,0.425531914893617,0.365853658536585,-0.0596782563570317,0.45,0.65,0.2,0,0.285714285714286,NA,NA,"small"
"701","left_right_width","initial",47,4,4,1.17186179989949,1.1,1.1,1.1,0.55,0.7,0.1,3.89170809998177,3.85,"exp1",0,0.15,0,0,1.27272727272727,1,4,1.03896103896104,2.2,2.8,0.6,0.571428571428571,0.7,0.128571428571429,0.55,0.4,-0.15,0.272727272727273,0,NA,NA,"large"
"701","left_right_width","match",48,3,3,0.913008200004697,1.475,1.3,1.3,0.25,0.1,0.35,2.8278584999498,3.2,"exp1",0,-0.15,-0.175,0,0.4,0.88135593220339,2.7,0.84375,0.75,0.3,-0.45,0.234375,0.111111111111111,-0.123263888888889,1.225,1.2,-0.0250000000000001,-0.6,-0.11864406779661,NA,NA,"large"
"701","left_right_width","initial",49,5,4,1.51572260004468,1.1,1.3,1.3,0.4,0.4,0.35,3.31050210003741,4.8,"exp1",-1,-5.55111512312578e-17,0.2,-0.2,1,1.18181818181818,4.3,0.895833333333333,2,1.6,-0.4,0.416666666666667,0.372093023255814,-0.0445736434108528,0.7,0.9,0.2,-1.38777878078145e-16,0.181818181818182,NA,NA,"large"
"701","left_right_width","match",50,3,3,1.26091880002059,1.4,1,1.1,0.25,0.2,0.45,3.27356500015594,3.05,"exp1",0,-0.0499999999999999,-0.4,0,0.8,0.714285714285714,2.2,0.721311475409836,0.75,0.6,-0.15,0.245901639344262,0.272727272727273,0.0268256333830105,1.15,0.8,-0.35,-0.2,-0.285714285714286,NA,NA,"large"
"701","left_right_width","initial",51,3,3,0.847841500071809,0.9,0.75,0.7,0.55,0.55,0.25,3.05286270007491,2.35,"exp1",0,-1.11022302462516e-16,-0.15,0,1,0.833333333333333,2.05,0.872340425531915,1.65,1.65,-2.22044604925031e-16,0.702127659574468,0.804878048780488,0.10275038920602,0.35,0.2,-0.15,-2.01858731750028e-16,-0.166666666666667,NA,NA,"middle"
"701","left_right_width","initial",52,3,3,0.972324899863452,0.7,0.85,1,0.55,0.65,0.3,5.01245519984514,1.95,"exp1",0,0.1,0.15,0,1.18181818181818,1.21428571428571,2.35,1.20512820512821,1.65,1.95,0.3,0.846153846153846,0.829787234042553,-0.016366612111293,0.15,0.2,0.05,0.181818181818182,0.214285714285714,NA,NA,"small"
"701","left_right_width","match",1,5,4,1.35095420014113,0.525,0.7,0.7,0.4,0.4,0.15,3.35978970001452,2.5,"exp1",-1,-5.55111512312578e-17,0.175,-0.2,1,1.33333333333333,2.5,1,2,1.6,-0.4,0.8,0.64,-0.16,0.125,0.3,0.175,-1.38777878078145e-16,0.333333333333333,NA,NA,"small"
"701","left_right_width","initial",2,5,4,0.97045150003396,0.9,1,1.2,0.55,0.65,0.15,3.26641639997251,4.15,"exp1",-1,0.1,0.1,-0.2,1.18181818181818,1.11111111111111,3.65,0.879518072289157,2.75,2.6,-0.15,0.662650602409638,0.712328767123288,0.0496781647136493,0.35,0.35,0,0.181818181818182,0.111111111111111,NA,NA,"middle"
"701","left_right_width","initial",3,4,4,1.18522379989736,0.9,0.9,1,0.4,0.25,0.45,4.84830479999073,3.1,"exp1",0,-0.15,0,0,0.625,1,2.95,0.951612903225806,1.6,1,-0.6,0.516129032258065,0.338983050847458,-0.177145981410607,0.5,0.65,0.15,-0.375,0,NA,NA,"middle"
"701","left_right_width","match",4,5,4,0.84376069996506,0.675,0.9,1.2,0.4,0.55,0.45,2.68131259991787,3.1,"exp1",-1,0.15,0.225,-0.2,1.375,1.33333333333333,3.25,1.04838709677419,2,2.2,0.2,0.645161290322581,0.676923076923077,0.0317617866004963,0.275,0.35,0.075,0.375,0.333333333333333,NA,NA,"small"
"701","left_right_width","match",5,3,3,1.17912869993597,2.2,1.45,1.2,0.55,0.7,0.3,5.85087580000982,4.95,"exp1",0,0.15,-0.75,0,1.27272727272727,0.659090909090909,3.6,0.727272727272727,1.65,2.1,0.45,0.333333333333333,0.583333333333333,0.25,1.65,0.75,-0.9,0.272727272727273,-0.340909090909091,NA,NA,"large"
"701","left_right_width","match",6,3,3,0.98636809992604,1.475,1.05,0.4,0.25,0.2,0.35,8.14576520002447,3.2,"exp1",0,-0.05,-0.425,0,0.8,0.711864406779661,2.3,0.71875,0.75,0.6,-0.15,0.234375,0.260869565217391,0.0264945652173913,1.225,0.85,-0.375,-0.2,-0.288135593220339,NA,NA,"large"
"701","left_right_width","initial",7,4,4,1.00521879992448,1.1,1,0.4,0.4,0.4,0.35,11.3157387999818,3.7,"exp1",0,-5.55111512312578e-17,-0.1,0,1,0.909090909090909,3.4,0.918918918918919,1.6,1.6,-2.22044604925031e-16,0.432432432432432,0.470588235294118,0.0381558028616852,0.7,0.6,-0.1,-1.38777878078145e-16,-0.090909090909091,NA,NA,"large"
"701","left_right_width","match",8,4,4,0.866284699877724,0.6,0.9,1.3,0.25,0.2,0.3,3.96700589987449,2.05,"exp1",0,-0.05,0.3,0,0.8,1.5,2.9,1.41463414634146,1,0.8,-0.2,0.487804878048781,0.275862068965517,-0.211942809083263,0.35,0.7,0.35,-0.2,0.5,NA,NA,"small"
"701","left_right_width","match",9,3,3,1.09773069992661,1.8,1,0.4,0.55,0.55,0.35,10.7812593001872,4.15,"exp1",0,-1.11022302462516e-16,-0.8,0,1,0.555555555555556,2.55,0.614457831325301,1.65,1.65,-2.22044604925031e-16,0.397590361445783,0.647058823529412,0.249468462083629,1.25,0.45,-0.8,-2.01858731750028e-16,-0.444444444444444,NA,NA,"large"
"701","left_right_width","match",10,4,3,0.999153700191528,0.733333333333333,0.9,1.2,0.55,0.6,0.35,5.39022929989733,2.75,"exp1",-1,0.0499999999999999,0.166666666666667,-0.25,1.09090909090909,1.22727272727273,2.4,0.872727272727273,2.2,1.8,-0.4,0.8,0.75,-0.05,0.183333333333333,0.3,0.116666666666667,0.0909090909090908,0.227272727272727,NA,NA,"small"
"701","left_right_width","initial",11,3,3,0.903854300035164,1.1,1,0.7,0.25,0.15,0.2,5.77826429996639,2.45,"exp1",0,-0.1,-0.1,0,0.6,0.909090909090909,2.15,0.877551020408163,0.75,0.45,-0.3,0.306122448979592,0.209302325581395,-0.0968201233981964,0.85,0.85,-1.11022302462516e-16,-0.4,-0.090909090909091,NA,NA,"large"
"701","left_right_width","initial",12,4,4,1.19219269999303,0.9,0.8,0.6,0.25,0.15,0.25,2.87163299997337,2.95,"exp1",0,-0.1,-0.1,0,0.6,0.888888888888889,2.55,0.864406779661017,1,0.6,-0.4,0.338983050847458,0.235294117647059,-0.103688933200399,0.65,0.65,0,-0.4,-0.111111111111111,NA,NA,"middle"
"701","left_right_width","initial",13,3,3,0.875551799777895,1.1,0.95,1,0.55,0.55,0.15,4.74367200001143,2.75,"exp1",0,-1.11022302462516e-16,-0.15,0,1,0.863636363636364,2.45,0.890909090909091,1.65,1.65,-2.22044604925031e-16,0.6,0.673469387755102,0.073469387755102,0.55,0.4,-0.15,-2.01858731750028e-16,-0.136363636363636,NA,NA,"large"
"701","left_right_width","match",14,4,4,0.9570182999596,0.783333333333333,0.7,0.9,0.25,0.15,0.15,4.06951040006243,2.6,"exp1",0,-0.1,-0.0833333333333334,0,0.6,0.893617021276596,2.25,0.865384615384615,1,0.6,-0.4,0.384615384615385,0.266666666666667,-0.117948717948718,0.533333333333333,0.55,0.0166666666666666,-0.4,-0.106382978723404,NA,NA,"small"
"701","left_right_width","initial",15,4,3,1.1585999999661,1.1,1.3,0.3,0.55,1.05,0.2,8.58316179993562,3.85,"exp1",-1,0.5,0.2,-0.25,1.90909090909091,1.18181818181818,3.65,0.948051948051948,2.2,3.15,0.950000000000001,0.571428571428571,0.863013698630137,0.291585127201566,0.55,0.25,-0.3,0.909090909090909,0.181818181818182,NA,NA,"large"
"701","left_right_width","initial",16,3,3,1.16104119992815,0.9,1.15,0.3,0.25,0.25,0.2,4.66561010014266,2.05,"exp1",0,0,0.25,0,1,1.27777777777778,2.55,1.24390243902439,0.75,0.75,0,0.365853658536585,0.294117647058824,-0.0717360114777619,0.65,0.9,0.25,0,0.277777777777778,NA,NA,"middle"
"701","left_right_width","match",17,4,4,0.898450299864635,0.466666666666667,0.4,0.6,0.25,0.15,0.25,3.90157780004665,1.65,"exp1",0,-0.1,-0.0666666666666667,0,0.6,0.857142857142857,1.35,0.818181818181818,1,0.6,-0.4,0.606060606060606,0.444444444444444,-0.161616161616162,0.216666666666667,0.25,0.0333333333333333,-0.4,-0.142857142857143,NA,NA,"small"
"701","left_right_width","match",18,3,3,0.931344299810007,1.8,1.05,0.9,0.25,0.1,0.45,4.94110580021515,3.85,"exp1",0,-0.15,-0.75,0,0.4,0.583333333333333,2.2,0.571428571428572,0.75,0.3,-0.45,0.194805194805195,0.136363636363636,-0.0584415584415584,1.55,0.95,-0.6,-0.6,-0.416666666666667,NA,NA,"large"
"701","left_right_width","match",19,5,5,1.93061430007219,0.825,0.95,1.3,0.25,0.1,0.45,7.62839849991724,3.55,"exp1",0,-0.15,0.125,0,0.4,1.15151515151515,3.9,1.09859154929577,1.25,0.5,-0.75,0.352112676056338,0.128205128205128,-0.22390754785121,0.575,0.85,0.275,-0.6,0.151515151515152,NA,NA,"middle"
"701","left_right_width","initial",20,5,4,1.41242980002426,1.1,0.7,0.6,0.25,0.15,0.45,5.83490450005047,4.65,"exp1",-1,-0.0999999999999999,-0.4,-0.2,0.6,0.636363636363636,2.25,0.483870967741935,1.25,0.6,-0.65,0.268817204301075,0.266666666666667,-0.00215053763440837,0.85,0.55,-0.3,-0.4,-0.363636363636364,NA,NA,"large"
"701","left_right_width","match",21,4,4,1.05119870021008,0.6,0.7,0.9,0.4,0.35,0.35,5.37582089984789,2.2,"exp1",0,-0.05,0.0999999999999999,0,0.875,1.16666666666667,2.45,1.11363636363636,1.6,1.4,-0.2,0.727272727272727,0.571428571428572,-0.155844155844156,0.2,0.35,0.15,-0.125,0.166666666666666,NA,NA,"small"
"701","left_right_width","initial",22,3,3,1.84952220018022,1.1,1,1.2,0.4,0.5,0.25,6.01491479994729,2.6,"exp1",0,0.0999999999999999,-0.1,0,1.25,0.909090909090909,2.5,0.961538461538461,1.2,1.5,0.3,0.461538461538462,0.6,0.138461538461538,0.7,0.5,-0.2,0.25,-0.090909090909091,NA,NA,"large"
"701","left_right_width","match",23,5,5,2.23575349990278,0.525,0.45,0.5,0.25,0.25,0.3,2.57701160013676,2.35,"exp1",0,0,-0.075,0,1,0.857142857142857,2.05,0.872340425531915,1.25,1.25,0,0.531914893617021,0.609756097560976,0.0778412039439544,0.275,0.2,-0.075,0,-0.142857142857143,NA,NA,"small"
"701","left_right_width","initial",24,3,3,0.914903300115839,0.9,0.75,0.7,0.55,0.5,0.1,3.8534916001372,2.35,"exp1",0,-0.0500000000000001,-0.15,0,0.909090909090909,0.833333333333333,2,0.851063829787234,1.65,1.5,-0.15,0.702127659574468,0.75,0.0478723404255318,0.35,0.25,-0.0999999999999999,-0.0909090909090911,-0.166666666666667,NA,NA,"middle"
"701","left_right_width","match",25,5,5,0.966336300130934,0.8625,0.9,1,0.25,0.2,0.2,2.19103859993629,3.7,"exp1",0,-0.05,0.0375,0,0.8,1.04347826086957,3.8,1.02702702702703,1.25,1,-0.25,0.337837837837838,0.263157894736842,-0.0746799431009957,0.6125,0.7,0.0874999999999999,-0.2,0.0434782608695652,NA,NA,"middle"
"701","left_right_width","match",26,3,3,0.928599500097334,2.2,1.5,0.7,0.4,0.35,0.45,6.1704158000648,4.8,"exp1",0,-0.05,-0.7,0,0.875,0.681818181818182,3.35,0.697916666666667,1.2,1.05,-0.15,0.25,0.313432835820896,0.0634328358208955,1.8,1.15,-0.65,-0.125,-0.318181818181818,NA,NA,"large"
"701","left_right_width","match",27,4,4,3.08215019991621,0.733333333333333,0.8,1.3,0.25,0.3,0.15,3.8704238999635,2.45,"exp1",0,0.05,0.0666666666666667,0,1.2,1.09090909090909,2.7,1.10204081632653,1,1.2,0.2,0.408163265306122,0.444444444444444,0.036281179138322,0.483333333333333,0.5,0.0166666666666666,0.2,0.0909090909090909,NA,NA,"small"
"701","left_right_width","initial",28,3,3,1.19675319991075,0.9,1.05,1.2,0.4,0.5,0.1,3.38761039986275,2.2,"exp1",0,0.0999999999999999,0.15,0,1.25,1.16666666666667,2.6,1.18181818181818,1.2,1.5,0.3,0.545454545454546,0.576923076923077,0.0314685314685313,0.5,0.55,0.05,0.25,0.166666666666667,NA,NA,"middle"
"701","left_right_width","match",29,5,4,1.15928419982083,0.675,0.8,1.2,0.55,0.45,0.25,3.31957769999281,3.25,"exp1",-1,-0.1,0.125,-0.2,0.818181818181818,1.18518518518519,2.85,0.876923076923077,2.75,1.8,-0.95,0.846153846153846,0.631578947368421,-0.214574898785425,0.125,0.35,0.225,-0.181818181818182,0.185185185185185,NA,NA,"small"
"701","left_right_width","match",30,4,4,1.64833880006336,0.466666666666667,0.6,1.1,0.4,0.4,0.25,6.71755599998869,1.8,"exp1",0,-5.55111512312578e-17,0.133333333333333,0,1,1.28571428571429,2.2,1.22222222222222,1.6,1.6,-2.22044604925031e-16,0.888888888888889,0.727272727272727,-0.161616161616162,0.0666666666666667,0.2,0.133333333333333,-1.38777878078145e-16,0.285714285714286,NA,NA,"small"
"701","left_right_width","match",31,5,4,0.996486800024286,0.675,0.7,1.2,0.25,0.15,0.15,3.0195163001772,2.95,"exp1",-1,-0.1,0.0249999999999999,-0.2,0.6,1.03703703703704,2.25,0.76271186440678,1.25,0.6,-0.65,0.423728813559322,0.266666666666667,-0.157062146892655,0.425,0.55,0.125,-0.4,0.0370370370370369,NA,NA,"small"
"701","left_right_width","initial",32,4,4,0.884452699916437,1.1,1.3,1.3,0.25,0.2,0.35,6.67169380001724,3.55,"exp1",0,-0.05,0.2,0,0.8,1.18181818181818,4.1,1.15492957746479,1,0.8,-0.2,0.28169014084507,0.195121951219512,-0.0865681896255582,0.85,1.1,0.25,-0.2,0.181818181818182,NA,NA,"large"
"701","left_right_width","match",33,3,3,0.823627599980682,1.8,1.25,0.5,0.4,0.4,0.3,4.19806079985574,4,"exp1",0,-5.55111512312578e-17,-0.55,0,1,0.694444444444445,2.9,0.725,1.2,1.2,-2.22044604925031e-16,0.3,0.413793103448276,0.113793103448276,1.4,0.85,-0.55,-1.38777878078145e-16,-0.305555555555555,NA,NA,"large"
"701","left_right_width","initial",34,5,4,1.029303799849,1.1,1.1,0.6,0.55,0.5,0.25,4.47508839983493,4.95,"exp1",-1,-0.0500000000000001,0,-0.2,0.909090909090909,1,3.8,0.767676767676768,2.75,2,-0.75,0.555555555555556,0.526315789473684,-0.0292397660818715,0.55,0.6,0.05,-0.0909090909090911,0,NA,NA,"large"
"701","left_right_width","initial",35,5,5,1.97922840015963,0.9,1.2,0.3,0.4,0.4,0.25,5.8348739000503,4,"exp1",0,-5.55111512312578e-17,0.3,0,1,1.33333333333333,5.2,1.3,2,2,-2.22044604925031e-16,0.5,0.384615384615385,-0.115384615384615,0.5,0.8,0.3,-1.38777878078145e-16,0.333333333333333,NA,NA,"middle"
"701","left_right_width","match",36,4,4,1.96312689990737,0.6,0.5,1.1,0.55,0.4,0.3,7.08367299987003,2.35,"exp1",0,-0.15,-0.1,0,0.727272727272727,0.833333333333333,1.9,0.808510638297872,2.2,1.6,-0.6,0.936170212765957,0.842105263157895,-0.0940649496080628,0.0499999999999999,0.1,0.0500000000000001,-0.272727272727273,-0.166666666666667,NA,NA,"small"
"701","left_right_width","match",37,3,3,1.07966339983977,1.4,1.15,0.9,0.55,0.4,0.25,9.40359410014935,3.35,"exp1",0,-0.15,-0.25,0,0.727272727272727,0.821428571428571,2.7,0.805970149253731,1.65,1.2,-0.45,0.492537313432836,0.444444444444444,-0.0480928689883914,0.85,0.75,-0.0999999999999999,-0.272727272727273,-0.178571428571429,NA,NA,"large"
"701","left_right_width","initial",38,4,4,1.15236810012721,0.7,0.9,0.8,0.25,0.15,0.3,2.78489000000991,2.35,"exp1",0,-0.1,0.2,0,0.6,1.28571428571429,2.85,1.21276595744681,1,0.6,-0.4,0.425531914893617,0.210526315789474,-0.215005599104143,0.45,0.75,0.3,-0.4,0.285714285714286,NA,NA,"small"
"701","left_right_width","initial",39,4,3,1.31518530007452,0.9,1.05,0.6,0.55,0.5,0.45,6.50967489997856,3.25,"exp1",-1,-0.05,0.15,-0.25,0.909090909090909,1.16666666666667,2.6,0.8,2.2,1.5,-0.7,0.676923076923077,0.576923076923077,-0.1,0.35,0.55,0.2,-0.090909090909091,0.166666666666667,NA,NA,"middle"
"701","left_right_width","match",40,5,4,1.0106210000813,0.825,0.7,0.7,0.55,0.55,0.4,2.02509390003979,3.85,"exp1",-1,0,-0.125,-0.2,1,0.848484848484848,2.65,0.688311688311688,2.75,2.2,-0.55,0.714285714285714,0.830188679245283,0.115902964959569,0.275,0.15,-0.125,0,-0.151515151515152,NA,NA,"middle"
"701","left_right_width","match",41,3,3,1.03903899993747,2.2,1.6,1.2,0.25,0.1,0.3,6.6604939000681,4.65,"exp1",0,-0.15,-0.6,0,0.4,0.727272727272727,3.3,0.709677419354839,0.75,0.3,-0.45,0.161290322580645,0.0909090909090909,-0.0703812316715542,1.95,1.5,-0.45,-0.6,-0.272727272727273,NA,NA,"large"
"701","left_right_width","initial",42,3,3,0.827543499879539,0.7,0.55,1.2,0.55,0.5,0.3,5.40093740005977,1.95,"exp1",0,-0.0500000000000001,-0.15,0,0.909090909090909,0.785714285714286,1.6,0.820512820512821,1.65,1.5,-0.15,0.846153846153846,0.9375,0.0913461538461535,0.15,0.0500000000000001,-0.0999999999999998,-0.0909090909090911,-0.214285714285714,NA,NA,"small"
"701","left_right_width","initial",43,4,3,2.14653809997253,0.7,0.85,1.1,0.4,0.4,0.35,3.27588450000621,2.5,"exp1",-1,-5.55111512312578e-17,0.15,-0.25,1,1.21428571428571,2.1,0.84,1.6,1.2,-0.4,0.64,0.571428571428571,-0.0685714285714286,0.3,0.45,0.15,-1.38777878078145e-16,0.214285714285714,NA,NA,"small"
"701","left_right_width","match",44,3,3,0.767568700015545,1.4,0.7,0.5,0.25,0.25,0.4,7.69594480004162,3.05,"exp1",0,5.55111512312578e-17,-0.7,0,1,0.5,1.65,0.540983606557377,0.75,0.75,2.22044604925031e-16,0.245901639344262,0.454545454545455,0.208643815201192,1.15,0.45,-0.7,2.22044604925031e-16,-0.5,NA,NA,"large"
"701","left_right_width","initial",45,5,4,1.19718609983101,0.7,1.2,0.3,0.25,0.2,0.25,5.11641749995761,3.05,"exp1",-1,-0.05,0.5,-0.2,0.8,1.71428571428571,3.8,1.24590163934426,1.25,0.8,-0.45,0.409836065573771,0.210526315789474,-0.199309749784297,0.45,1,0.55,-0.2,0.714285714285714,NA,NA,"small"
"701","left_right_width","initial",46,3,3,0.823011399945244,0.7,0.6,0.6,0.4,0.35,0.45,2.27715320000425,1.8,"exp1",0,-0.05,-0.1,0,0.875,0.857142857142857,1.55,0.861111111111111,1.2,1.05,-0.15,0.666666666666667,0.67741935483871,0.010752688172043,0.3,0.25,-0.05,-0.125,-0.142857142857143,NA,NA,"small"
"701","left_right_width","initial",47,5,5,1.1971531000454,1.1,1.1,1.3,0.4,0.35,0.25,4.17217819998041,4.8,"exp1",0,-0.05,0,0,0.875,1,4.75,0.989583333333333,2,1.75,-0.25,0.416666666666667,0.368421052631579,-0.0482456140350877,0.7,0.75,0.05,-0.125,0,NA,NA,"large"
"701","left_right_width","initial",48,5,5,1.25668080011383,0.7,0.45,0.3,0.55,0.35,0.1,4.85278300009668,3.35,"exp1",0,-0.2,-0.25,0,0.636363636363636,0.642857142857143,2.15,0.641791044776119,2.75,1.75,-1,0.82089552238806,0.813953488372093,-0.00694203401596671,0.15,0.1,-0.0499999999999999,-0.363636363636364,-0.357142857142857,NA,NA,"small"
"701","left_right_width","initial",49,4,4,1.10852170013823,0.7,0.6,0.9,0.55,0.45,0.4,2.53493309998885,2.65,"exp1",0,-0.1,-0.1,0,0.818181818181818,0.857142857142857,2.25,0.849056603773585,2.2,1.8,-0.4,0.830188679245283,0.8,-0.0301886792452831,0.15,0.15,5.55111512312578e-17,-0.181818181818182,-0.142857142857143,NA,NA,"small"
"701","left_right_width","initial",50,3,3,1.797405899968,0.7,0.7,0.8,0.25,0.15,0.4,3.5324077999685,1.65,"exp1",0,-0.0999999999999999,0,0,0.6,1,1.55,0.939393939393939,0.75,0.45,-0.3,0.454545454545455,0.290322580645161,-0.164222873900293,0.45,0.55,0.0999999999999999,-0.4,0,NA,NA,"small"
"701","left_right_width","initial",51,5,5,0.946713499957696,0.9,0.75,0.3,0.25,0.15,0.25,4.41194180003367,3.85,"exp1",0,-0.1,-0.15,0,0.6,0.833333333333333,3.15,0.818181818181818,1.25,0.75,-0.5,0.324675324675325,0.238095238095238,-0.0865800865800865,0.65,0.6,-0.05,-0.4,-0.166666666666667,NA,NA,"middle"
"701","left_right_width","initial",52,5,5,1.8545882999897,0.7,0.75,1.2,0.4,0.4,0.45,4.91500029992312,3.2,"exp1",0,0,0.05,0,1,1.07142857142857,3.4,1.0625,2,2,0,0.625,0.588235294117647,-0.0367647058823529,0.3,0.35,0.05,0,0.0714285714285715,NA,NA,"small"
"701","left_right_width","initial",1,5,4,1.20923119992949,0.9,0.9,0.6,0.55,0.5,0.35,3.44805180002004,4.15,"exp1",-1,-0.0500000000000001,0,-0.2,0.909090909090909,1,3.2,0.771084337349398,2.75,2,-0.75,0.662650602409638,0.625,-0.0376506024096386,0.35,0.4,0.0500000000000001,-0.0909090909090911,0,NA,NA,"middle"
"701","left_right_width","initial",2,3,3,0.939112300053239,1.1,1,1,0.25,0.2,0.1,1.97223089984618,2.45,"exp1",0,-0.05,-0.1,0,0.8,0.909090909090909,2.2,0.897959183673469,0.75,0.6,-0.15,0.306122448979592,0.272727272727273,-0.033395176252319,0.85,0.8,-0.05,-0.2,-0.090909090909091,NA,NA,"large"
"701","left_right_width","initial",3,3,3,0.978357200045139,0.9,1.15,1.2,0.4,0.4,0.15,3.35431040008552,2.2,"exp1",0,-5.55111512312578e-17,0.25,0,1,1.27777777777778,2.7,1.22727272727273,1.2,1.2,-2.22044604925031e-16,0.545454545454546,0.444444444444444,-0.101010101010101,0.5,0.75,0.25,-1.38777878078145e-16,0.277777777777778,NA,NA,"middle"
"701","left_right_width","match",4,5,4,1.04712640005164,0.675,0.7,1.2,0.55,0.5,0.4,5.27657029987313,3.25,"exp1",-1,-0.05,0.0249999999999999,-0.2,0.909090909090909,1.03703703703704,2.6,0.8,2.75,2,-0.75,0.846153846153846,0.769230769230769,-0.0769230769230768,0.125,0.2,0.075,-0.090909090909091,0.0370370370370369,NA,NA,"small"
"701","left_right_width","initial",5,5,4,1.03435470000841,1.1,0.8,0.3,0.4,0.3,0.3,5.0397876999341,4.8,"exp1",-1,-0.1,-0.3,-0.2,0.75,0.727272727272727,2.7,0.5625,2,1.2,-0.8,0.416666666666667,0.444444444444444,0.0277777777777778,0.7,0.5,-0.2,-0.25,-0.272727272727273,NA,NA,"large"
"701","left_right_width","match",6,3,3,0.782941600074992,1.4,1.3,1.3,0.55,0.45,0.3,2.07929849997163,3.35,"exp1",0,-0.1,-0.0999999999999999,0,0.818181818181818,0.928571428571429,3.05,0.91044776119403,1.65,1.35,-0.3,0.492537313432836,0.442622950819672,-0.0499143626131637,0.85,0.85,2.22044604925031e-16,-0.181818181818182,-0.0714285714285713,NA,NA,"large"
"701","left_right_width","match",7,4,4,1.07112600002438,0.733333333333333,0.9,1.1,0.25,0.25,0.25,2.38696660008281,2.45,"exp1",0,0,0.166666666666667,0,1,1.22727272727273,2.95,1.20408163265306,1,1,0,0.408163265306122,0.338983050847458,-0.0691802144586648,0.483333333333333,0.65,0.166666666666667,0,0.227272727272727,NA,NA,"small"
"701","left_right_width","initial",8,4,4,0.90226379991509,0.7,0.6,0.9,0.25,0.1,0.25,4.17713189986534,2.35,"exp1",0,-0.15,-0.1,0,0.4,0.857142857142857,1.9,0.808510638297872,1,0.4,-0.6,0.425531914893617,0.210526315789474,-0.215005599104143,0.45,0.5,0.05,-0.6,-0.142857142857143,NA,NA,"small"
"701","left_right_width","match",9,3,3,0.833027799846604,1.8,1.35,0.7,0.4,0.35,0.35,3.10293540009297,4,"exp1",0,-0.05,-0.45,0,0.875,0.75,3.05,0.7625,1.2,1.05,-0.15,0.3,0.344262295081967,0.0442622950819671,1.4,1,-0.4,-0.125,-0.25,NA,NA,"large"
"701","left_right_width","match",10,3,3,1.01892100018449,2.2,1.7,0.9,0.25,0.2,0.2,5.39253129996359,4.65,"exp1",0,-0.05,-0.5,0,0.8,0.772727272727273,3.6,0.774193548387097,0.75,0.6,-0.15,0.161290322580645,0.166666666666667,0.00537634408602153,1.95,1.5,-0.45,-0.2,-0.227272727272727,NA,NA,"large"
"701","left_right_width","match",11,4,4,1.50999170006253,0.6,0.5,0.3,0.4,0.4,0.25,4.23255469999276,2.2,"exp1",0,-5.55111512312578e-17,-0.1,0,1,0.833333333333333,1.9,0.863636363636364,1.6,1.6,-2.22044604925031e-16,0.727272727272727,0.842105263157895,0.114832535885167,0.2,0.1,-0.1,-1.38777878078145e-16,-0.166666666666667,NA,NA,"small"
"701","left_right_width","initial",12,3,3,0.838306799996644,0.9,0.75,0.5,0.55,0.55,0.3,4.25986439990811,2.35,"exp1",0,-1.11022302462516e-16,-0.15,0,1,0.833333333333333,2.05,0.872340425531915,1.65,1.65,-2.22044604925031e-16,0.702127659574468,0.804878048780488,0.10275038920602,0.35,0.2,-0.15,-2.01858731750028e-16,-0.166666666666667,NA,NA,"middle"
"701","left_right_width","initial",13,5,6,2.21862709987909,1.1,0.6,1.1,0.25,0.2,0.35,7.16828240011819,4.65,"exp1",1,-0.05,-0.5,0.2,0.8,0.545454545454545,3.2,0.688172043010753,1.25,1.2,-0.0499999999999998,0.268817204301075,0.375,0.106182795698925,0.85,0.4,-0.45,-0.2,-0.454545454545455,NA,NA,"large"
"701","left_right_width","initial",14,5,5,1.04500990011729,0.9,0.65,1.1,0.25,0.15,0.1,3.09830579999834,3.85,"exp1",0,-0.1,-0.25,0,0.6,0.722222222222222,2.75,0.714285714285714,1.25,0.75,-0.5,0.324675324675325,0.272727272727273,-0.0519480519480519,0.65,0.5,-0.15,-0.4,-0.277777777777778,NA,NA,"middle"
"701","left_right_width","match",15,5,5,1.51978920004331,0.825,0.55,0.5,0.55,0.35,0.4,2.3696198000107,3.85,"exp1",0,-0.2,-0.275,0,0.636363636363636,0.666666666666667,2.55,0.662337662337662,2.75,1.75,-1,0.714285714285714,0.686274509803922,-0.0280112044817927,0.275,0.2,-0.075,-0.363636363636364,-0.333333333333333,NA,NA,"middle"
"701","left_right_width","match",16,3,4,0.924465999938548,1.4,0.9,0.4,0.25,0.2,0.15,3.04656709986739,3.05,"exp1",1,-0.05,-0.5,0.333333333333333,0.8,0.642857142857143,2.9,0.950819672131148,0.75,0.8,0.05,0.245901639344262,0.275862068965517,0.0299604296212549,1.15,0.7,-0.45,-0.2,-0.357142857142857,NA,NA,"large"
"701","left_right_width","initial",17,4,4,0.905959099996835,1.1,0.8,1,0.55,0.45,0.45,3.18826419999823,3.85,"exp1",0,-0.1,-0.3,0,0.818181818181818,0.727272727272727,2.85,0.74025974025974,2.2,1.8,-0.4,0.571428571428571,0.631578947368421,0.0601503759398495,0.55,0.35,-0.2,-0.181818181818182,-0.272727272727273,NA,NA,"large"
"701","left_right_width","match",18,3,3,0.791739700129256,1.8,1,0.9,0.25,0.3,0.1,2.47101780003868,3.85,"exp1",0,0.05,-0.8,0,1.2,0.555555555555556,2.3,0.597402597402597,0.75,0.9,0.15,0.194805194805195,0.391304347826087,0.196499153020892,1.55,0.7,-0.85,0.2,-0.444444444444444,NA,NA,"large"
"701","left_right_width","initial",19,4,4,0.86902859993279,0.9,0.8,0.7,0.25,0.2,0.1,3.40920330001973,2.95,"exp1",0,-0.05,-0.1,0,0.8,0.888888888888889,2.6,0.88135593220339,1,0.8,-0.2,0.338983050847458,0.307692307692308,-0.03129074315515,0.65,0.6,-0.0499999999999999,-0.2,-0.111111111111111,NA,NA,"middle"
"701","left_right_width","initial",20,5,5,0.934039399959147,0.9,0.9,1,0.4,0.35,0.4,3.26318880007602,4,"exp1",0,-0.05,0,0,0.875,1,3.95,0.9875,2,1.75,-0.25,0.5,0.443037974683544,-0.0569620253164557,0.5,0.55,0.05,-0.125,0,NA,NA,"middle"
"701","left_right_width","initial",21,3,3,1.02187839988619,1.1,0.85,0.8,0.4,0.4,0.15,3.25164790009148,2.6,"exp1",0,-5.55111512312578e-17,-0.25,0,1,0.772727272727273,2.1,0.807692307692308,1.2,1.2,-2.22044604925031e-16,0.461538461538462,0.571428571428571,0.10989010989011,0.7,0.45,-0.25,-1.38777878078145e-16,-0.227272727272727,NA,NA,"large"
"701","left_right_width","match",22,5,5,0.965011700056493,0.8625,0.7,0.5,0.25,0.15,0.4,9.58161030011252,3.7,"exp1",0,-0.0999999999999999,-0.1625,0,0.6,0.811594202898551,2.95,0.797297297297297,1.25,0.75,-0.5,0.337837837837838,0.254237288135593,-0.0836005497022445,0.6125,0.55,-0.0625000000000002,-0.4,-0.188405797101449,NA,NA,"middle"
"701","left_right_width","match",23,5,5,1.4959569000639,0.825,0.75,0.9,0.25,0.15,0.15,2.02724290010519,3.55,"exp1",0,-0.1,-0.075,0,0.6,0.909090909090909,3.15,0.887323943661972,1.25,0.75,-0.5,0.352112676056338,0.238095238095238,-0.1140174379611,0.575,0.6,0.025,-0.4,-0.0909090909090909,NA,NA,"middle"
"701","left_right_width","initial",24,4,4,1.00917960004881,1.1,0.7,0.7,0.25,0.15,0.25,5.68765110010281,3.55,"exp1",0,-0.1,-0.4,0,0.6,0.636363636363636,2.25,0.633802816901408,1,0.6,-0.4,0.28169014084507,0.266666666666667,-0.0150234741784036,0.85,0.55,-0.3,-0.4,-0.363636363636364,NA,NA,"large"
"701","left_right_width","initial",25,4,3,1.02505189995281,0.9,0.9,1,0.55,0.45,0.4,2.61494200001471,3.25,"exp1",-1,-0.1,0,-0.25,0.818181818181818,1,2.25,0.692307692307692,2.2,1.35,-0.85,0.676923076923077,0.6,-0.0769230769230769,0.35,0.45,0.1,-0.181818181818182,0,NA,NA,"middle"
"701","left_right_width","match",26,3,3,0.869634800124913,2.2,1.85,0.7,0.55,0.6,0.45,6.51389810000546,4.95,"exp1",0,0.05,-0.35,0,1.09090909090909,0.840909090909091,4.3,0.868686868686869,1.65,1.8,0.15,0.333333333333333,0.418604651162791,0.0852713178294573,1.65,1.25,-0.4,0.090909090909091,-0.159090909090909,NA,NA,"large"
"701","left_right_width","initial",27,5,4,0.966400699922815,0.7,0.7,1,0.4,0.45,0.35,3.26331319985911,3.2,"exp1",-1,0.0499999999999999,0,-0.2,1.125,1,2.55,0.796875,2,1.8,-0.2,0.625,0.705882352941176,0.0808823529411764,0.3,0.25,-0.0499999999999999,0.125,0,NA,NA,"small"
"701","left_right_width","initial",28,5,4,1.02214820007794,0.7,0.8,0.7,0.25,0.15,0.35,3.07579739997163,3.05,"exp1",-1,-0.1,0.1,-0.2,0.6,1.14285714285714,2.55,0.836065573770492,1.25,0.6,-0.65,0.409836065573771,0.235294117647059,-0.174541947926712,0.45,0.65,0.2,-0.4,0.142857142857143,NA,NA,"small"
"701","left_right_width","match",29,4,4,0.965402999892831,0.466666666666667,0.4,1.2,0.4,0.3,0.35,4.17463369993493,1.8,"exp1",0,-0.1,-0.0666666666666667,0,0.75,0.857142857142857,1.5,0.833333333333333,1.6,1.2,-0.4,0.888888888888889,0.8,-0.0888888888888891,0.0666666666666667,0.1,0.0333333333333334,-0.25,-0.142857142857143,NA,NA,"small"
"701","left_right_width","match",30,4,4,1.12468179990537,0.466666666666667,0.6,0.5,0.25,0.3,0.4,2.93431239994243,1.65,"exp1",0,0.05,0.133333333333333,0,1.2,1.28571428571429,2.1,1.27272727272727,1,1.2,0.2,0.606060606060606,0.571428571428572,-0.0346320346320345,0.216666666666667,0.3,0.0833333333333333,0.2,0.285714285714286,NA,NA,"small"
"701","left_right_width","match",31,3,3,0.818984700134024,1.475,1.05,0.6,0.25,0.2,0.2,2.30438999994658,3.2,"exp1",0,-0.05,-0.425,0,0.8,0.711864406779661,2.3,0.71875,0.75,0.6,-0.15,0.234375,0.260869565217391,0.0264945652173913,1.225,0.85,-0.375,-0.2,-0.288135593220339,NA,NA,"large"
"701","left_right_width","initial",32,4,3,1.77133720018901,0.9,0.75,0.4,0.4,0.25,0.3,2.30706499982625,3.1,"exp1",-1,-0.15,-0.15,-0.25,0.625,0.833333333333333,1.75,0.564516129032258,1.6,0.75,-0.85,0.516129032258065,0.428571428571429,-0.087557603686636,0.5,0.5,0,-0.375,-0.166666666666667,NA,NA,"middle"
"701","left_right_width","match",33,5,5,0.992000099970028,0.675,0.7,0.6,0.25,0.2,0.3,2.1510636000894,2.95,"exp1",0,-0.05,0.0249999999999999,0,0.8,1.03703703703704,3,1.01694915254237,1.25,1,-0.25,0.423728813559322,0.333333333333333,-0.0903954802259887,0.425,0.5,0.0749999999999999,-0.2,0.0370370370370369,NA,NA,"small"
"701","left_right_width","match",34,5,4,1.02653499995358,0.525,0.8,1.2,0.25,0.15,0.45,3.41645239992067,2.35,"exp1",-1,-0.0999999999999999,0.275,-0.2,0.6,1.52380952380952,2.55,1.08510638297872,1.25,0.6,-0.65,0.531914893617021,0.235294117647059,-0.296620775969962,0.275,0.65,0.375,-0.4,0.523809523809524,NA,NA,"small"
"701","left_right_width","initial",35,4,4,0.7931807001587,1.1,1,0.6,0.4,0.3,0.3,1.83251119987108,3.7,"exp1",0,-0.1,-0.1,0,0.75,0.909090909090909,3.3,0.891891891891892,1.6,1.2,-0.4,0.432432432432432,0.363636363636364,-0.0687960687960688,0.7,0.7,-1.11022302462516e-16,-0.25,-0.090909090909091,NA,NA,"large"
"701","left_right_width","initial",36,3,3,1.05246150004677,0.7,0.45,0.3,0.4,0.3,0.25,4.24118590005673,1.8,"exp1",0,-0.1,-0.25,0,0.75,0.642857142857143,1.2,0.666666666666667,1.2,0.9,-0.3,0.666666666666667,0.75,0.0833333333333333,0.3,0.15,-0.15,-0.25,-0.357142857142857,NA,NA,"small"
"701","left_right_width","match",37,3,3,0.744486699812114,1.8,1.6,0.8,0.55,0.6,0.35,5.0499452999793,4.15,"exp1",0,0.0499999999999999,-0.2,0,1.09090909090909,0.888888888888889,3.8,0.91566265060241,1.65,1.8,0.15,0.397590361445783,0.473684210526316,0.0760938490805326,1.25,1,-0.25,0.0909090909090908,-0.111111111111111,NA,NA,"large"
"701","left_right_width","initial",38,4,4,0.897189800161868,0.7,0.7,0.9,0.4,0.4,0.35,2.44446909986436,2.5,"exp1",0,-5.55111512312578e-17,0,0,1,1,2.5,1,1.6,1.6,-2.22044604925031e-16,0.64,0.64,0,0.3,0.3,5.55111512312578e-17,-1.38777878078145e-16,0,NA,NA,"small"
"701","left_right_width","initial",39,5,4,0.935677699977532,0.7,0.7,1.3,0.55,0.5,0.35,5.18498869985342,3.35,"exp1",-1,-0.0500000000000001,0,-0.2,0.909090909090909,1,2.6,0.776119402985075,2.75,2,-0.75,0.82089552238806,0.769230769230769,-0.0516647531572905,0.15,0.2,0.0500000000000001,-0.0909090909090911,0,NA,NA,"small"
"701","left_right_width","initial",40,3,3,0.840993300080299,0.7,0.4,0.4,0.55,0.35,0.1,2.85934889991768,1.95,"exp1",0,-0.2,-0.3,0,0.636363636363636,0.571428571428572,1.15,0.58974358974359,1.65,1.05,-0.6,0.846153846153846,0.91304347826087,0.0668896321070233,0.15,0.05,-0.0999999999999999,-0.363636363636364,-0.428571428571428,NA,NA,"small"
"701","left_right_width","match",41,3,3,0.85443550022319,2.2,1.7,0.7,0.4,0.35,0.35,5.2833175000269,4.8,"exp1",0,-0.05,-0.5,0,0.875,0.772727272727273,3.75,0.78125,1.2,1.05,-0.15,0.25,0.28,0.0299999999999999,1.8,1.35,-0.45,-0.125,-0.227272727272727,NA,NA,"large"
"701","left_right_width","initial",42,3,3,0.835482400143519,0.9,0.95,1,0.25,0.15,0.25,2.09652279992588,2.05,"exp1",0,-0.1,0.0499999999999999,0,0.6,1.05555555555556,2.05,1,0.75,0.45,-0.3,0.365853658536585,0.219512195121951,-0.146341463414634,0.65,0.8,0.15,-0.4,0.0555555555555555,NA,NA,"middle"
"701","left_right_width","match",43,4,3,2.73400710010901,0.783333333333333,0.75,0.4,0.25,0.25,0.3,2.84713270002976,2.6,"exp1",-1,0,-0.0333333333333333,-0.25,1,0.957446808510638,1.75,0.673076923076923,1,0.75,-0.25,0.384615384615385,0.428571428571429,0.043956043956044,0.533333333333333,0.5,-0.0333333333333333,0,-0.0425531914893617,NA,NA,"small"
"701","left_right_width","match",44,4,3,0.900461599929258,0.733333333333333,0.7,0.9,0.55,0.55,0.2,4.78327170014381,2.75,"exp1",-1,-1.11022302462516e-16,-0.0333333333333333,-0.25,1,0.954545454545455,1.95,0.709090909090909,2.2,1.65,-0.55,0.8,0.846153846153846,0.0461538461538462,0.183333333333333,0.15,-0.0333333333333332,-2.01858731750028e-16,-0.0454545454545454,NA,NA,"small"
"701","left_right_width","match",45,4,4,1.19731909991242,0.6,0.8,0.9,0.25,0.15,0.35,2.60430140001699,2.05,"exp1",0,-0.1,0.2,0,0.6,1.33333333333333,2.55,1.24390243902439,1,0.6,-0.4,0.487804878048781,0.235294117647059,-0.252510760401722,0.35,0.65,0.3,-0.4,0.333333333333334,NA,NA,"small"
"701","left_right_width","initial",46,5,5,0.839210700010881,1.1,1.2,1.2,0.55,0.4,0.4,1.28432229999453,4.95,"exp1",0,-0.15,0.0999999999999999,0,0.727272727272727,1.09090909090909,5.2,1.05050505050505,2.75,2,-0.75,0.555555555555556,0.384615384615385,-0.170940170940171,0.55,0.8,0.25,-0.272727272727273,0.0909090909090908,NA,NA,"large"
"701","left_right_width","match",47,4,4,0.926543900044635,0.6,0.7,0.8,0.55,0.65,0.1,6.50436670007184,2.35,"exp1",0,0.1,0.1,0,1.18181818181818,1.16666666666667,2.75,1.17021276595745,2.2,2.6,0.4,0.936170212765957,0.945454545454546,0.00928433268858819,0.0499999999999999,0.0499999999999999,0,0.181818181818182,0.166666666666667,NA,NA,"small"
"701","left_right_width","match",48,5,4,1.31908300006762,0.525,0.4,0.7,0.4,0.35,0.1,10.0813943999819,2.5,"exp1",-1,-0.05,-0.125,-0.2,0.875,0.761904761904762,1.55,0.62,2,1.4,-0.6,0.8,0.903225806451613,0.103225806451613,0.125,0.05,-0.075,-0.125,-0.238095238095238,NA,NA,"small"
"701","left_right_width","match",49,5,5,1.91522160009481,0.675,0.5,0.7,0.4,0.25,0.35,3.83764039981179,3.1,"exp1",0,-0.15,-0.175,0,0.625,0.740740740740741,2.25,0.725806451612903,2,1.25,-0.75,0.645161290322581,0.555555555555556,-0.089605734767025,0.275,0.25,-0.025,-0.375,-0.259259259259259,NA,NA,"small"
"701","left_right_width","initial",50,4,4,0.91928040003404,0.7,0.5,0.6,0.55,0.4,0.1,3.44095119996928,2.65,"exp1",0,-0.15,-0.2,0,0.727272727272727,0.714285714285714,1.9,0.716981132075472,2.2,1.6,-0.6,0.830188679245283,0.842105263157895,0.0119165839126115,0.15,0.1,-0.0499999999999999,-0.272727272727273,-0.285714285714286,NA,NA,"small"
"701","left_right_width","initial",51,3,3,0.792656499892473,1.1,0.9,1,0.55,0.4,0.4,1.68766020005569,2.75,"exp1",0,-0.15,-0.2,0,0.727272727272727,0.818181818181818,2.2,0.8,1.65,1.2,-0.45,0.6,0.545454545454546,-0.0545454545454546,0.55,0.5,-0.05,-0.272727272727273,-0.181818181818182,NA,NA,"large"
"701","left_right_width","initial",52,3,3,1.13158709998243,0.7,0.8,1,0.25,0.15,0.15,1.80503910011612,1.65,"exp1",0,-0.1,0.1,0,0.6,1.14285714285714,1.75,1.06060606060606,0.75,0.45,-0.3,0.454545454545455,0.257142857142857,-0.197402597402597,0.45,0.65,0.2,-0.4,0.142857142857143,NA,NA,"small"
"701","left_right_width","match",1,5,4,1.30077579990029,0.825,0.8,0.5,0.55,0.4,0.2,3.3112344997935,3.85,"exp1",-1,-0.15,-0.025,-0.2,0.727272727272727,0.96969696969697,2.8,0.727272727272727,2.75,1.6,-1.15,0.714285714285714,0.571428571428571,-0.142857142857143,0.275,0.4,0.125,-0.272727272727273,-0.0303030303030303,NA,NA,"middle"
"701","left_right_width","match",2,4,4,1.09191700001247,0.733333333333333,0.6,0.5,0.55,0.45,0.25,2.18325309990905,2.75,"exp1",0,-0.1,-0.133333333333333,0,0.818181818181818,0.818181818181818,2.25,0.818181818181818,2.2,1.8,-0.4,0.8,0.8,-1.11022302462516e-16,0.183333333333333,0.15,-0.0333333333333332,-0.181818181818182,-0.181818181818182,NA,NA,"small"
"701","left_right_width","match",3,4,4,0.781618800014257,0.783333333333333,0.7,1.3,0.25,0.35,0.4,2.76500250003301,2.6,"exp1",0,0.1,-0.0833333333333334,0,1.4,0.893617021276596,2.45,0.942307692307692,1,1.4,0.4,0.384615384615385,0.571428571428572,0.186813186813187,0.533333333333333,0.35,-0.183333333333333,0.4,-0.106382978723404,NA,NA,"small"
"701","left_right_width","match",4,3,3,0.843829000135884,1.8,1.2,0.7,0.55,0.45,0.45,2.71335959993303,4.15,"exp1",0,-0.1,-0.6,0,0.818181818181818,0.666666666666667,2.85,0.686746987951807,1.65,1.35,-0.3,0.397590361445783,0.473684210526316,0.0760938490805327,1.25,0.75,-0.5,-0.181818181818182,-0.333333333333333,NA,NA,"large"
"701","left_right_width","match",5,3,3,1.1559081999585,2.2,2.25,1,0.55,0.45,0.35,6.77242000005208,4.95,"exp1",0,-0.1,0.0499999999999998,0,0.818181818181818,1.02272727272727,4.95,1,1.65,1.35,-0.3,0.333333333333333,0.272727272727273,-0.0606060606060607,1.65,1.8,0.15,-0.181818181818182,0.0227272727272726,NA,NA,"large"
"701","left_right_width","initial",6,5,4,0.814915399998426,0.7,0.7,0.9,0.4,0.4,0.45,2.26905180001631,3.2,"exp1",-1,0,0,-0.2,1,1,2.5,0.78125,2,1.6,-0.4,0.625,0.64,0.0150000000000001,0.3,0.3,0,0,0,NA,NA,"small"
"701","left_right_width","match",7,4,4,0.828052399912849,0.6,0.5,0.5,0.4,0.35,0.15,2.61770170019008,2.2,"exp1",0,-0.05,-0.1,0,0.875,0.833333333333333,1.85,0.840909090909091,1.6,1.4,-0.2,0.727272727272727,0.756756756756757,0.0294840294840294,0.2,0.15,-0.05,-0.125,-0.166666666666667,NA,NA,"small"
"701","left_right_width","initial",8,4,4,0.948428600095212,1.1,1.1,0.6,0.55,0.4,0.35,3.19809409999289,3.85,"exp1",0,-0.15,0,0,0.727272727272727,1,3.7,0.961038961038961,2.2,1.6,-0.6,0.571428571428571,0.432432432432432,-0.138996138996139,0.55,0.7,0.15,-0.272727272727273,0,NA,NA,"large"
"701","left_right_width","match",9,5,4,0.869284700136632,0.525,0.7,1,0.25,0.2,0.45,3.32933009997942,2.35,"exp1",-1,-0.0499999999999999,0.175,-0.2,0.8,1.33333333333333,2.3,0.978723404255319,1.25,0.8,-0.45,0.531914893617021,0.347826086956522,-0.184088806660499,0.275,0.5,0.225,-0.2,0.333333333333333,NA,NA,"small"
"701","left_right_width","initial",10,5,4,0.909321099985391,0.7,0.6,1,0.55,0.45,0.45,2.83960780012421,3.35,"exp1",-1,-0.1,-0.1,-0.2,0.818181818181818,0.857142857142857,2.25,0.671641791044776,2.75,1.8,-0.95,0.82089552238806,0.8,-0.0208955223880597,0.15,0.15,5.55111512312578e-17,-0.181818181818182,-0.142857142857143,NA,NA,"small"
"701","left_right_width","match",11,5,5,0.855345699936152,0.675,0.55,0.8,0.55,0.45,0.35,5.17180180014111,3.25,"exp1",0,-0.1,-0.125,0,0.818181818181818,0.814814814814815,2.65,0.815384615384615,2.75,2.25,-0.5,0.846153846153846,0.849056603773585,0.00290275761973868,0.125,0.1,-0.0249999999999999,-0.181818181818182,-0.185185185185185,NA,NA,"small"
"701","left_right_width","initial",12,3,3,0.798120200168341,0.7,0.7,0.7,0.25,0.25,0.25,1.16503229993396,1.65,"exp1",0,0,0,0,1,1,1.65,1,0.75,0.75,0,0.454545454545455,0.454545454545455,0,0.45,0.45,0,0,0,NA,NA,"small"
"701","left_right_width","initial",13,5,4,0.896032500080764,0.9,1.1,0.3,0.4,0.3,0.25,3.21132739982568,4,"exp1",-1,-0.1,0.2,-0.2,0.75,1.22222222222222,3.6,0.9,2,1.2,-0.8,0.5,0.333333333333333,-0.166666666666667,0.5,0.8,0.3,-0.25,0.222222222222222,NA,NA,"middle"
"701","left_right_width","match",14,5,5,0.785908400081098,0.825,0.9,1,0.25,0.25,0.4,1.68144279997796,3.55,"exp1",0,5.55111512312578e-17,0.0750000000000001,0,1,1.09090909090909,3.85,1.08450704225352,1.25,1.25,2.22044604925031e-16,0.352112676056338,0.324675324675325,-0.0274373513810133,0.575,0.65,0.075,2.22044604925031e-16,0.090909090909091,NA,NA,"middle"
"701","left_right_width","initial",15,5,5,1.36542679998092,0.7,0.95,1.3,0.25,0.2,0.2,2.54189910017885,3.05,"exp1",0,-0.05,0.25,0,0.8,1.35714285714286,4,1.31147540983607,1.25,1,-0.25,0.409836065573771,0.25,-0.159836065573771,0.45,0.75,0.3,-0.2,0.357142857142857,NA,NA,"small"
"701","left_right_width","match",16,5,4,0.891230099834502,0.675,0.8,1.1,0.25,0.3,0.3,1.06261859997176,2.95,"exp1",-1,0.05,0.125,-0.2,1.2,1.18518518518519,2.7,0.915254237288136,1.25,1.2,-0.05,0.423728813559322,0.444444444444444,0.0207156308851224,0.425,0.5,0.075,0.2,0.185185185185185,NA,NA,"small"
"701","left_right_width","match",17,4,5,1.3689294999931,0.466666666666667,0.4,0.6,0.4,0.35,0.25,3.98503359989263,1.8,"exp1",1,-0.05,-0.0666666666666667,0.25,0.875,0.857142857142857,1.95,1.08333333333333,1.6,1.75,0.15,0.888888888888889,0.897435897435897,0.00854700854700841,0.0666666666666667,0.05,-0.0166666666666666,-0.125,-0.142857142857143,NA,NA,"small"
"701","left_right_width","initial",18,5,5,0.835660999873653,1.1,0.9,0.3,0.4,0.3,0.2,3.82436629990116,4.8,"exp1",0,-0.1,-0.2,0,0.75,0.818181818181818,3.9,0.8125,2,1.5,-0.5,0.416666666666667,0.384615384615385,-0.032051282051282,0.7,0.6,-0.1,-0.25,-0.181818181818182,NA,NA,"large"
"701","left_right_width","initial",19,3,3,0.816407299833372,1.1,1.15,1.2,0.25,0.2,0.3,1.80573840020224,2.45,"exp1",0,-0.05,0.0499999999999998,0,0.8,1.04545454545455,2.5,1.02040816326531,0.75,0.6,-0.15,0.306122448979592,0.24,-0.0661224489795917,0.85,0.95,0.0999999999999999,-0.2,0.0454545454545453,NA,NA,"large"
"701","left_right_width","match",20,3,3,0.877795099979267,1.475,1.35,1.3,0.25,0.15,0.25,2.40981459990144,3.2,"exp1",0,-0.1,-0.125,0,0.6,0.915254237288136,2.85,0.890625,0.75,0.45,-0.3,0.234375,0.157894736842105,-0.0764802631578947,1.225,1.2,-0.0249999999999999,-0.4,-0.0847457627118644,NA,NA,"large"
"701","left_right_width","initial",21,4,4,1.86881270003505,0.7,0.9,0.9,0.25,0.3,0.3,1.9364593999926,2.35,"exp1",0,0.05,0.2,0,1.2,1.28571428571429,3,1.27659574468085,1,1.2,0.2,0.425531914893617,0.4,-0.0255319148936171,0.45,0.6,0.15,0.2,0.285714285714286,NA,NA,"small"
"701","left_right_width","match",22,4,4,1.55618590000086,0.6,0.5,0.6,0.55,0.4,0.2,6.69259899994358,2.35,"exp1",0,-0.15,-0.1,0,0.727272727272727,0.833333333333333,1.9,0.808510638297872,2.2,1.6,-0.6,0.936170212765957,0.842105263157895,-0.0940649496080628,0.0499999999999999,0.1,0.0500000000000001,-0.272727272727273,-0.166666666666667,NA,NA,"small"
"701","left_right_width","match",23,4,4,1.00806719996035,0.733333333333333,0.6,0.4,0.25,0.25,0.1,3.1903826999478,2.45,"exp1",0,0,-0.133333333333333,0,1,0.818181818181818,2.05,0.836734693877551,1,1,0,0.408163265306122,0.487804878048781,0.0796416127426581,0.483333333333333,0.35,-0.133333333333333,0,-0.181818181818182,NA,NA,"small"
"701","left_right_width","match",24,3,3,0.788172299973667,1.4,1.5,0.7,0.55,0.45,0.3,4.70704580005258,3.35,"exp1",0,-0.1,0.1,0,0.818181818181818,1.07142857142857,3.45,1.02985074626866,1.65,1.35,-0.3,0.492537313432836,0.391304347826087,-0.101232965606749,0.85,1.05,0.2,-0.181818181818182,0.0714285714285715,NA,NA,"large"
"701","left_right_width","match",25,5,4,1.50219060014933,0.525,0.7,0.5,0.4,0.45,0.1,3.76073640002869,2.5,"exp1",-1,0.0499999999999999,0.175,-0.2,1.125,1.33333333333333,2.55,1.02,2,1.8,-0.2,0.8,0.705882352941176,-0.0941176470588236,0.125,0.25,0.125,0.125,0.333333333333333,NA,NA,"small"
"701","left_right_width","initial",26,5,5,0.833158700028434,1.1,0.65,0.5,0.55,0.45,0.2,3.79115649987943,4.95,"exp1",0,-0.1,-0.45,0,0.818181818181818,0.590909090909091,3.05,0.616161616161616,2.75,2.25,-0.5,0.555555555555556,0.737704918032787,0.182149362477231,0.55,0.2,-0.35,-0.181818181818182,-0.409090909090909,NA,NA,"large"
"701","left_right_width","initial",27,5,5,1.11875110003166,0.9,0.85,1,0.55,0.6,0.3,3.48848859989084,4.15,"exp1",0,0.0499999999999999,-0.05,0,1.09090909090909,0.944444444444444,4,0.963855421686747,2.75,3,0.25,0.662650602409638,0.75,0.0873493975903615,0.35,0.25,-0.1,0.0909090909090908,-0.0555555555555556,NA,NA,"middle"
"701","left_right_width","initial",28,4,5,1.03206070000306,1.1,0.85,1.1,0.4,0.35,0.45,5.62999819987454,3.7,"exp1",1,-0.05,-0.25,0.25,0.875,0.772727272727273,3.75,1.01351351351351,1.6,1.75,0.15,0.432432432432432,0.466666666666667,0.0342342342342343,0.7,0.5,-0.2,-0.125,-0.227272727272727,NA,NA,"large"
"701","left_right_width","initial",29,3,3,0.877798599889502,0.7,0.75,1.1,0.4,0.4,0.4,3.57814500015229,1.8,"exp1",0,0,0.05,0,1,1.07142857142857,1.9,1.05555555555556,1.2,1.2,0,0.666666666666667,0.631578947368421,-0.0350877192982456,0.3,0.35,0.05,0,0.0714285714285715,NA,NA,"small"
"701","left_right_width","initial",30,5,5,0.946109100012109,1.1,1.1,1.1,0.25,0.15,0.15,0.875326399924234,4.65,"exp1",0,-0.1,0,0,0.6,1,4.55,0.978494623655914,1.25,0.75,-0.5,0.268817204301075,0.164835164835165,-0.10398203946591,0.85,0.95,0.1,-0.4,0,NA,NA,"large"
"701","left_right_width","initial",31,3,3,0.825326099991798,0.7,0.35,0.3,0.55,0.3,0.2,3.25516050006263,1.95,"exp1",0,-0.25,-0.35,0,0.545454545454545,0.5,1,0.512820512820513,1.65,0.9,-0.75,0.846153846153846,0.9,0.0538461538461537,0.15,0.05,-0.0999999999999999,-0.454545454545455,-0.5,NA,NA,"small"
"701","left_right_width","initial",32,4,5,1.30980559997261,1.1,0.8,0.8,0.25,0.1,0.1,1.38439270015806,3.55,"exp1",1,-0.15,-0.3,0.25,0.4,0.727272727272727,3.3,0.929577464788732,1,0.5,-0.5,0.28169014084507,0.151515151515151,-0.130174989329919,0.85,0.7,-0.15,-0.6,-0.272727272727273,NA,NA,"large"
"701","left_right_width","initial",33,3,3,0.78268209984526,1.1,0.9,0.9,0.55,0.4,0.3,2.68641319987364,2.75,"exp1",0,-0.15,-0.2,0,0.727272727272727,0.818181818181818,2.2,0.8,1.65,1.2,-0.45,0.6,0.545454545454545,-0.0545454545454547,0.55,0.5,-0.05,-0.272727272727273,-0.181818181818182,NA,NA,"large"
"701","left_right_width","match",34,5,5,0.868880299851298,0.8625,0.8,0.4,0.25,0.2,0.3,4.56060889991932,3.7,"exp1",0,-0.05,-0.0625,0,0.8,0.927536231884058,3.4,0.918918918918919,1.25,1,-0.25,0.337837837837838,0.294117647058823,-0.0437201907790143,0.6125,0.6,-0.0125,-0.2,-0.072463768115942,NA,NA,"middle"
"701","left_right_width","initial",35,4,5,0.839419099967927,0.9,0.7,1.2,0.25,0.15,0.4,7.28443160001189,2.95,"exp1",1,-0.0999999999999999,-0.2,0.25,0.6,0.777777777777778,2.95,1,1,0.75,-0.25,0.338983050847458,0.254237288135593,-0.0847457627118642,0.65,0.55,-0.1,-0.4,-0.222222222222222,NA,NA,"middle"
"701","left_right_width","match",36,5,5,0.916609199950472,0.675,0.65,1,0.4,0.3,0.3,1.98325609997846,3.1,"exp1",0,-0.1,-0.025,0,0.75,0.962962962962963,2.9,0.935483870967742,2,1.5,-0.5,0.645161290322581,0.517241379310345,-0.127919911012236,0.275,0.35,0.075,-0.25,-0.0370370370370371,NA,NA,"small"
"701","left_right_width","match",37,3,3,0.759414599975571,1.4,1.05,1.1,0.25,0.15,0.4,2.75995739991777,3.05,"exp1",0,-0.0999999999999999,-0.35,0,0.6,0.75,2.25,0.737704918032787,0.75,0.45,-0.3,0.245901639344262,0.2,-0.0459016393442622,1.15,0.9,-0.25,-0.4,-0.25,NA,NA,"large"
"701","left_right_width","match",38,3,3,0.732416300103068,1.8,1.35,1.3,0.4,0.45,0.1,4.12664040015079,4,"exp1",0,0.0499999999999999,-0.45,0,1.125,0.75,3.15,0.7875,1.2,1.35,0.15,0.3,0.428571428571428,0.128571428571428,1.4,0.9,-0.5,0.125,-0.25,NA,NA,"large"
"701","left_right_width","initial",39,4,3,0.762631699908525,0.7,0.6,0.6,0.55,0.45,0.2,4.17116310005076,2.65,"exp1",-1,-0.1,-0.1,-0.25,0.818181818181818,0.857142857142857,1.65,0.622641509433962,2.2,1.35,-0.85,0.830188679245283,0.818181818181818,-0.012006861063465,0.15,0.15,1.11022302462516e-16,-0.181818181818182,-0.142857142857143,NA,NA,"small"
"701","left_right_width","match",40,3,3,0.709219900192693,2.2,1.35,0.6,0.25,0.2,0.3,4.51968999998644,4.65,"exp1",0,-0.05,-0.85,0,0.8,0.613636363636364,2.9,0.623655913978495,0.75,0.6,-0.15,0.161290322580645,0.206896551724138,0.0456062291434928,1.95,1.15,-0.8,-0.2,-0.386363636363636,NA,NA,"large"
"701","left_right_width","initial",41,3,3,0.678526700008661,0.9,0.9,0.9,0.55,0.45,0.4,1.88265360007063,2.35,"exp1",0,-0.1,0,0,0.818181818181818,1,2.25,0.957446808510638,1.65,1.35,-0.3,0.702127659574468,0.6,-0.102127659574468,0.35,0.45,0.1,-0.181818181818182,0,NA,NA,"middle"
"701","left_right_width","initial",42,4,4,1.09058540011756,0.9,0.9,0.4,0.4,0.3,0.3,4.16607500007376,3.1,"exp1",0,-0.1,0,0,0.75,1,3,0.967741935483871,1.6,1.2,-0.4,0.516129032258065,0.4,-0.116129032258065,0.5,0.6,0.1,-0.25,0,NA,NA,"middle"
"701","left_right_width","initial",43,3,3,1.04052069992758,0.9,0.65,0.4,0.4,0.45,0.2,3.34996920009144,2.2,"exp1",0,0.0499999999999999,-0.25,0,1.125,0.722222222222222,1.75,0.795454545454545,1.2,1.35,0.15,0.545454545454546,0.771428571428571,0.225974025974026,0.5,0.2,-0.3,0.125,-0.277777777777778,NA,NA,"middle"
"701","left_right_width","initial",44,5,5,1.0273356998805,0.9,0.8,1.1,0.25,0.15,0.2,5.41746130003594,3.85,"exp1",0,-0.1,-0.1,0,0.6,0.888888888888889,3.35,0.87012987012987,1.25,0.75,-0.5,0.324675324675325,0.223880597014925,-0.100794727660399,0.65,0.65,0,-0.4,-0.111111111111111,NA,NA,"middle"
"701","left_right_width","initial",45,4,4,1.03791419998743,0.7,0.6,0.9,0.4,0.3,0.35,3.3151191000361,2.5,"exp1",0,-0.1,-0.1,0,0.75,0.857142857142857,2.1,0.84,1.6,1.2,-0.4,0.64,0.571428571428572,-0.0685714285714285,0.3,0.3,5.55111512312578e-17,-0.25,-0.142857142857143,NA,NA,"small"
"701","left_right_width","initial",46,3,3,0.699833600083366,1.1,0.8,0.7,0.4,0.4,0.1,2.46329790004529,2.6,"exp1",0,-5.55111512312578e-17,-0.3,0,1,0.727272727272727,2,0.769230769230769,1.2,1.2,-2.22044604925031e-16,0.461538461538462,0.6,0.138461538461538,0.7,0.4,-0.3,-1.38777878078145e-16,-0.272727272727273,NA,NA,"large"
"701","left_right_width","match",47,4,4,1.05406269989908,0.6,0.5,1.1,0.25,0.25,0.3,3.44260390009731,2.05,"exp1",0,0,-0.0999999999999999,0,1,0.833333333333333,1.75,0.853658536585366,1,1,0,0.487804878048781,0.571428571428571,0.0836236933797909,0.35,0.25,-0.0999999999999999,0,-0.166666666666666,NA,NA,"small"
"701","left_right_width","match",48,3,4,1.07385420007631,1.8,0.6,1,0.25,0.15,0.3,2.35802170005627,3.85,"exp1",1,-0.1,-1.2,0.333333333333333,0.6,0.333333333333333,1.95,0.506493506493506,0.75,0.6,-0.15,0.194805194805195,0.307692307692308,0.112887112887113,1.55,0.45,-1.1,-0.4,-0.666666666666667,NA,NA,"large"
"701","left_right_width","initial",49,3,3,0.792553500039503,0.9,0.4,0.4,0.25,0.15,0.1,4.07169130002148,2.05,"exp1",0,-0.1,-0.5,0,0.6,0.444444444444444,0.95,0.463414634146342,0.75,0.45,-0.3,0.365853658536585,0.473684210526316,0.10783055198973,0.65,0.25,-0.4,-0.4,-0.555555555555556,NA,NA,"middle"
"701","left_right_width","initial",50,4,4,0.894061299972236,0.9,0.8,1.1,0.55,0.35,0.35,1.44929609983228,3.25,"exp1",0,-0.2,-0.1,0,0.636363636363636,0.888888888888889,2.75,0.846153846153846,2.2,1.4,-0.8,0.676923076923077,0.509090909090909,-0.167832167832168,0.35,0.45,0.1,-0.363636363636364,-0.111111111111111,NA,NA,"middle"
"701","left_right_width","match",51,3,4,1.1008113999851,2.2,1,0.5,0.4,0.3,0.25,2.76721620000899,4.8,"exp1",1,-0.1,-1.2,0.333333333333333,0.75,0.454545454545455,3.3,0.6875,1.2,1.2,-2.22044604925031e-16,0.25,0.363636363636364,0.113636363636364,1.8,0.7,-1.1,-0.25,-0.545454545454545,NA,NA,"large"
"701","left_right_width","match",52,4,4,0.983669500099495,0.466666666666667,0.7,0.9,0.25,0.4,0.3,1.79117490001954,1.65,"exp1",0,0.15,0.233333333333333,0,1.6,1.5,2.5,1.51515151515151,1,1.6,0.6,0.606060606060606,0.64,0.0339393939393939,0.216666666666667,0.3,0.0833333333333333,0.6,0.5,NA,NA,"small"
"701","left_right_width","initial",1,3,3,1.19186359993182,0.7,0.9,1.2,0.55,0.4,0.25,6.82309810002334,1.95,"exp1",0,-0.15,0.2,0,0.727272727272727,1.28571428571429,2.2,1.12820512820513,1.65,1.2,-0.45,0.846153846153846,0.545454545454545,-0.300699300699301,0.15,0.5,0.35,-0.272727272727273,0.285714285714286,NA,NA,"small"
"701","left_right_width","initial",2,3,3,0.91517010005191,0.7,0.8,1.3,0.4,0.3,0.1,3.16606010007672,1.8,"exp1",0,-0.1,0.1,0,0.75,1.14285714285714,1.9,1.05555555555556,1.2,0.9,-0.3,0.666666666666667,0.473684210526316,-0.192982456140351,0.3,0.5,0.2,-0.25,0.142857142857143,NA,NA,"small"
"701","left_right_width","match",3,5,4,0.920653100125492,0.675,1,1,0.55,0.4,0.2,2.83445079997182,3.25,"exp1",-1,-0.15,0.325,-0.2,0.727272727272727,1.48148148148148,3.4,1.04615384615385,2.75,1.6,-1.15,0.846153846153846,0.470588235294118,-0.375565610859729,0.125,0.6,0.475,-0.272727272727273,0.481481481481481,NA,NA,"small"
"701","left_right_width","initial",4,4,4,0.952418999979272,1.1,1,1.3,0.55,0.45,0.25,2.12939970009029,3.85,"exp1",0,-0.1,-0.1,0,0.818181818181818,0.909090909090909,3.45,0.896103896103896,2.2,1.8,-0.4,0.571428571428571,0.521739130434782,-0.0496894409937889,0.55,0.55,0,-0.181818181818182,-0.090909090909091,NA,NA,"large"
"701","left_right_width","match",5,4,4,0.835704299854115,0.466666666666667,0.6,1,0.4,0.35,0.25,3.44468990014866,1.8,"exp1",0,-0.05,0.133333333333333,0,0.875,1.28571428571429,2.15,1.19444444444444,1.6,1.4,-0.2,0.888888888888889,0.651162790697674,-0.237726098191215,0.0666666666666667,0.25,0.183333333333333,-0.125,0.285714285714286,NA,NA,"small"
"701","left_right_width","initial",6,3,3,0.92730849981308,1.1,1.1,0.7,0.25,0.15,0.1,3.65709969983436,2.45,"exp1",0,-0.1,0,0,0.6,1,2.35,0.959183673469388,0.75,0.45,-0.3,0.306122448979592,0.191489361702128,-0.114633087277464,0.85,0.95,0.1,-0.4,0,NA,NA,"large"
"701","left_right_width","match",7,5,5,1.68798110005446,0.8625,0.85,0.9,0.25,0.1,0.45,2.73907919996418,3.7,"exp1",0,-0.15,-0.0125000000000001,0,0.4,0.985507246376812,3.5,0.945945945945946,1.25,0.5,-0.75,0.337837837837838,0.142857142857143,-0.194980694980695,0.6125,0.75,0.1375,-0.6,-0.0144927536231885,NA,NA,"middle"
"701","left_right_width","initial",8,5,4,1.09479129989631,1.1,1.1,0.6,0.4,0.25,0.25,1.7378360000439,4.8,"exp1",-1,-0.15,0,-0.2,0.625,1,3.55,0.739583333333333,2,1,-1,0.416666666666667,0.28169014084507,-0.134976525821596,0.7,0.85,0.15,-0.375,0,NA,NA,"large"
"701","left_right_width","initial",9,3,3,0.821413199882954,0.9,1.3,1.3,0.25,0.2,0.35,2.05110130016692,2.05,"exp1",0,-0.05,0.4,0,0.8,1.44444444444444,2.8,1.36585365853659,0.75,0.6,-0.15,0.365853658536585,0.214285714285714,-0.151567944250871,0.65,1.1,0.45,-0.2,0.444444444444444,NA,NA,"middle"
"701","left_right_width","match",10,4,4,0.740615000016987,0.733333333333333,0.8,1.2,0.55,0.35,0.3,2.35793150006793,2.75,"exp1",0,-0.2,0.0666666666666668,0,0.636363636363636,1.09090909090909,2.75,1,2.2,1.4,-0.8,0.8,0.509090909090909,-0.290909090909091,0.183333333333333,0.45,0.266666666666667,-0.363636363636364,0.0909090909090911,NA,NA,"small"
"701","left_right_width","initial",11,5,5,1.01251939986832,0.9,0.85,0.9,0.4,0.4,0.45,1.96340840007178,4,"exp1",0,0,-0.05,0,1,0.944444444444444,3.8,0.95,2,2,0,0.5,0.526315789473684,0.0263157894736842,0.5,0.45,-0.05,0,-0.0555555555555556,NA,NA,"middle"
"701","left_right_width","initial",12,3,3,0.669881399953738,0.9,0.7,0.6,0.55,0.45,0.35,1.65001369989477,2.35,"exp1",0,-0.1,-0.2,0,0.818181818181818,0.777777777777778,1.85,0.787234042553191,1.65,1.35,-0.3,0.702127659574468,0.72972972972973,0.0276020701552616,0.35,0.25,-0.1,-0.181818181818182,-0.222222222222222,NA,NA,"middle"
"701","left_right_width","initial",13,4,5,1.34130969992839,0.9,0.75,1.1,0.4,0.3,0.1,3.99044939992018,3.1,"exp1",1,-0.1,-0.15,0.25,0.75,0.833333333333333,3.3,1.06451612903226,1.6,1.5,-0.1,0.516129032258065,0.454545454545455,-0.0615835777126099,0.5,0.45,-0.05,-0.25,-0.166666666666667,NA,NA,"middle"
"701","left_right_width","initial",14,4,4,0.670093000167981,1.1,0.9,1,0.4,0.3,0.1,3.20187229989097,3.7,"exp1",0,-0.1,-0.2,0,0.75,0.818181818181818,3,0.810810810810811,1.6,1.2,-0.4,0.432432432432432,0.4,-0.0324324324324325,0.7,0.6,-0.1,-0.25,-0.181818181818182,NA,NA,"large"
"701","left_right_width","match",15,4,4,0.699395600007847,0.466666666666667,0.5,0.5,0.25,0.2,0.2,0.846714599989355,1.65,"exp1",0,-0.05,0.0333333333333333,0,0.8,1.07142857142857,1.7,1.03030303030303,1,0.8,-0.2,0.606060606060606,0.470588235294118,-0.135472370766488,0.216666666666667,0.3,0.0833333333333333,-0.2,0.0714285714285714,NA,NA,"small"
"701","left_right_width","match",16,4,4,0.749948600074276,0.6,0.7,0.8,0.4,0.3,0.3,1.69538890011609,2.2,"exp1",0,-0.1,0.0999999999999999,0,0.75,1.16666666666667,2.4,1.09090909090909,1.6,1.2,-0.4,0.727272727272727,0.5,-0.227272727272727,0.2,0.4,0.2,-0.25,0.166666666666666,NA,NA,"small"
"701","left_right_width","match",17,5,5,0.894806900061667,0.675,0.8,1.3,0.25,0.2,0.2,2.21779629983939,2.95,"exp1",0,-0.05,0.125,0,0.8,1.18518518518519,3.4,1.15254237288136,1.25,1,-0.25,0.423728813559322,0.294117647058823,-0.129611166500499,0.425,0.6,0.175,-0.2,0.185185185185185,NA,NA,"small"
"701","left_right_width","initial",18,4,4,1.01069959998131,0.7,0.5,1.2,0.25,0.15,0.1,1.86521140020341,2.35,"exp1",0,-0.1,-0.2,0,0.6,0.714285714285714,1.65,0.702127659574468,1,0.6,-0.4,0.425531914893617,0.363636363636364,-0.0618955512572534,0.45,0.35,-0.1,-0.4,-0.285714285714286,NA,NA,"small"
"701","left_right_width","initial",19,5,5,0.882065600017086,1.1,1,0.6,0.55,0.45,0.1,3.06976010021754,4.95,"exp1",0,-0.1,-0.1,0,0.818181818181818,0.909090909090909,4.45,0.898989898989899,2.75,2.25,-0.5,0.555555555555556,0.50561797752809,-0.0499375780274657,0.55,0.55,0,-0.181818181818182,-0.090909090909091,NA,NA,"large"
"701","left_right_width","match",20,3,3,0.820488200057298,1.8,1.4,1.3,0.4,0.4,0.3,2.01845340011641,4,"exp1",0,-5.55111512312578e-17,-0.4,0,1,0.777777777777778,3.2,0.8,1.2,1.2,-2.22044604925031e-16,0.3,0.375,0.075,1.4,1,-0.4,-1.38777878078145e-16,-0.222222222222222,NA,NA,"large"
"701","left_right_width","match",21,5,5,1.57962990016676,0.525,0.7,0.7,0.25,0.3,0.3,0.955098799895495,2.35,"exp1",0,0.05,0.175,0,1.2,1.33333333333333,3.1,1.31914893617021,1.25,1.5,0.25,0.531914893617021,0.483870967741936,-0.0480439258750857,0.275,0.4,0.125,0.2,0.333333333333333,NA,NA,"small"
"701","left_right_width","initial",22,3,2,1.01392649998888,0.9,1,1.6,0.4,0.35,0.25,2.76496329996735,2.2,"exp1",-1,-0.05,0.1,-0.333333333333333,0.875,1.11111111111111,1.35,0.613636363636364,1.2,0.7,-0.5,0.545454545454546,0.518518518518518,-0.026936026936027,0.5,0.65,0.15,-0.125,0.111111111111111,NA,NA,"middle"
"701","left_right_width","match",23,3,3,0.709251799853519,2.2,1.45,0.6,0.4,0.35,0.1,5.4482330000028,4.8,"exp1",0,-0.05,-0.75,0,0.875,0.659090909090909,3.25,0.677083333333333,1.2,1.05,-0.15,0.25,0.323076923076923,0.073076923076923,1.8,1.1,-0.7,-0.125,-0.340909090909091,NA,NA,"large"
"701","left_right_width","initial",24,4,4,1.00711310002953,1.1,1,1.1,0.25,0.1,0.4,2.64603270008229,3.55,"exp1",0,-0.15,-0.1,0,0.4,0.909090909090909,3.1,0.873239436619718,1,0.4,-0.6,0.28169014084507,0.129032258064516,-0.152657882780554,0.85,0.9,0.0499999999999998,-0.6,-0.090909090909091,NA,NA,"large"
"701","left_right_width","match",25,3,2,1.06513020000421,1.4,1.4,1.6,0.55,0.55,0.15,2.62184219993651,3.35,"exp1",-1,-1.11022302462516e-16,0,-0.333333333333333,1,1,1.95,0.582089552238806,1.65,1.1,-0.55,0.492537313432836,0.564102564102564,0.0715652506697282,0.85,0.85,1.11022302462516e-16,-2.01858731750028e-16,0,NA,NA,"large"
"701","left_right_width","match",26,4,3,1.09000320010819,0.783333333333333,1.05,0.5,0.25,0.25,0.35,4.80512229981832,2.6,"exp1",-1,0,0.266666666666667,-0.25,1,1.34042553191489,2.35,0.903846153846154,1,0.75,-0.25,0.384615384615385,0.319148936170213,-0.0654664484451719,0.533333333333333,0.8,0.266666666666667,0,0.340425531914894,NA,NA,"small"
"701","left_right_width","match",27,5,4,0.950028399936855,0.825,0.6,1,0.55,0.4,0.4,1.48714149999432,3.85,"exp1",-1,-0.15,-0.225,-0.2,0.727272727272727,0.727272727272727,2.2,0.571428571428571,2.75,1.6,-1.15,0.714285714285714,0.727272727272727,0.0129870129870131,0.275,0.2,-0.0750000000000001,-0.272727272727273,-0.272727272727273,NA,NA,"middle"
"701","left_right_width","match",28,4,4,1.30088969995268,0.6,0.5,0.6,0.55,0.45,0.45,1.55122849997133,2.35,"exp1",0,-0.1,-0.1,0,0.818181818181818,0.833333333333333,1.95,0.829787234042553,2.2,1.8,-0.4,0.936170212765957,0.923076923076923,-0.0130932896890343,0.0499999999999999,0.05,5.55111512312578e-17,-0.181818181818182,-0.166666666666667,NA,NA,"small"
"701","left_right_width","initial",29,3,2,1.05858909990638,1.1,1.1,1.6,0.4,0.5,0.2,2.95114080002531,2.6,"exp1",-1,0.0999999999999999,0,-0.333333333333333,1.25,1,1.6,0.615384615384615,1.2,1,-0.2,0.461538461538462,0.625,0.163461538461538,0.7,0.6,-0.1,0.25,0,NA,NA,"large"
"701","left_right_width","match",30,3,2,0.968350900104269,1.8,1.7,1.6,0.55,0.55,0.25,4.56072760000825,4.15,"exp1",-1,-1.11022302462516e-16,-0.1,-0.333333333333333,1,0.944444444444444,2.25,0.542168674698795,1.65,1.1,-0.55,0.397590361445783,0.488888888888889,0.0912985274431057,1.25,1.15,-0.1,-2.01858731750028e-16,-0.0555555555555556,NA,NA,"large"
"701","left_right_width","initial",31,3,2,0.813338899984956,1.1,1.6,1.6,0.55,0.5,0.25,4.55578479985707,2.75,"exp1",-1,-0.0500000000000001,0.5,-0.333333333333333,0.909090909090909,1.45454545454545,2.1,0.763636363636364,1.65,1,-0.65,0.6,0.476190476190476,-0.123809523809524,0.55,1.1,0.55,-0.0909090909090911,0.454545454545455,NA,NA,"large"
"701","left_right_width","match",32,5,5,2.03474719985388,0.825,0.7,0.4,0.25,0.15,0.15,2.06411300017498,3.55,"exp1",0,-0.1,-0.125,0,0.6,0.848484848484849,2.95,0.830985915492958,1.25,0.75,-0.5,0.352112676056338,0.254237288135593,-0.0978753879207448,0.575,0.55,-0.025,-0.4,-0.151515151515152,NA,NA,"middle"
"701","left_right_width","initial",33,5,4,0.778785900212824,0.7,1,0.7,0.25,0.15,0.25,2.20245560002513,3.05,"exp1",-1,-0.1,0.3,-0.2,0.6,1.42857142857143,3.15,1.0327868852459,1.25,0.6,-0.65,0.409836065573771,0.190476190476191,-0.21935987509758,0.45,0.85,0.4,-0.4,0.428571428571429,NA,NA,"small"
"701","left_right_width","initial",34,5,4,0.79403580003418,0.7,0.7,1,0.55,0.5,0.1,4.12117030005902,3.35,"exp1",-1,-0.0500000000000001,0,-0.2,0.909090909090909,1,2.6,0.776119402985075,2.75,2,-0.75,0.82089552238806,0.769230769230769,-0.0516647531572905,0.15,0.2,0.0500000000000001,-0.0909090909090911,0,NA,NA,"small"
"701","left_right_width","match",35,3,2,0.909518799977377,1.8,1.8,1.6,0.25,0.15,0.2,4.20000039995648,3.85,"exp1",-1,-0.1,0,-0.333333333333333,0.6,1,1.95,0.506493506493507,0.75,0.3,-0.45,0.194805194805195,0.153846153846154,-0.040959040959041,1.55,1.65,0.0999999999999999,-0.4,0,NA,NA,"large"
"701","left_right_width","initial",36,4,3,0.995273499982432,0.9,0.85,0.4,0.25,0.15,0.15,2.09048660006374,2.95,"exp1",-1,-0.1,-0.05,-0.25,0.6,0.944444444444444,1.85,0.627118644067796,1,0.45,-0.55,0.338983050847458,0.243243243243243,-0.0957398076042144,0.65,0.7,0.0499999999999999,-0.4,-0.0555555555555556,NA,NA,"middle"
"701","left_right_width","initial",37,4,3,1.51769459992647,0.7,0.85,1,0.55,0.4,0.4,1.79199069994502,2.65,"exp1",-1,-0.15,0.15,-0.25,0.727272727272727,1.21428571428571,2.1,0.792452830188679,2.2,1.2,-1,0.830188679245283,0.571428571428572,-0.258760107816712,0.15,0.45,0.3,-0.272727272727273,0.214285714285714,NA,NA,"small"
"701","left_right_width","match",38,3,2,0.811387300025672,2.2,2.6,1.6,0.25,0.2,0.35,5.24199489993043,4.65,"exp1",-1,-0.05,0.4,-0.333333333333333,0.8,1.18181818181818,2.8,0.602150537634409,0.75,0.4,-0.35,0.161290322580645,0.142857142857143,-0.0184331797235023,1.95,2.4,0.45,-0.2,0.181818181818182,NA,NA,"large"
"701","left_right_width","match",39,3,2,0.857205900130793,2.2,2.3,1.6,0.55,0.4,0.4,2.75780260004103,4.95,"exp1",-1,-0.15,0.0999999999999996,-0.333333333333333,0.727272727272727,1.04545454545455,2.7,0.545454545454545,1.65,0.8,-0.85,0.333333333333333,0.296296296296296,-0.037037037037037,1.65,1.9,0.25,-0.272727272727273,0.0454545454545453,NA,NA,"large"
"701","left_right_width","match",40,3,2,0.798371599987149,1.4,2.2,1.6,0.25,0.15,0.15,1.85380669985898,3.05,"exp1",-1,-0.1,0.8,-0.333333333333333,0.6,1.57142857142857,2.35,0.770491803278689,0.75,0.3,-0.45,0.245901639344262,0.127659574468085,-0.118242064876177,1.15,2.05,0.9,-0.4,0.571428571428572,NA,NA,"large"
"701","left_right_width","match",41,4,3,0.790981500176713,0.733333333333333,0.95,0.5,0.25,0.2,0.35,3.57385979988612,2.45,"exp1",-1,-0.05,0.216666666666667,-0.25,0.8,1.29545454545455,2.1,0.857142857142857,1,0.6,-0.4,0.408163265306122,0.285714285714286,-0.122448979591837,0.483333333333333,0.75,0.266666666666667,-0.2,0.295454545454545,NA,NA,"small"
"701","left_right_width","initial",42,5,5,1.09613580000587,1.1,1.2,1.2,0.25,0.25,0.25,1.11523170000874,4.65,"exp1",0,0,0.0999999999999999,0,1,1.09090909090909,5.05,1.08602150537634,1.25,1.25,0,0.268817204301075,0.247524752475248,-0.0212924518258277,0.85,0.95,0.0999999999999999,0,0.0909090909090908,NA,NA,"large"
"701","left_right_width","match",43,5,4,1.12793989991769,0.675,0.4,1.2,0.4,0.3,0.15,3.65790640003979,3.1,"exp1",-1,-0.1,-0.275,-0.2,0.75,0.592592592592593,1.5,0.483870967741936,2,1.2,-0.8,0.645161290322581,0.8,0.154838709677419,0.275,0.1,-0.175,-0.25,-0.407407407407407,NA,NA,"small"
"701","left_right_width","initial",44,4,4,0.858640700113028,0.7,0.5,0.7,0.4,0.35,0.25,4.48702839994803,2.5,"exp1",0,-0.05,-0.2,0,0.875,0.714285714285714,1.85,0.74,1.6,1.4,-0.2,0.64,0.756756756756757,0.116756756756757,0.3,0.15,-0.15,-0.125,-0.285714285714286,NA,NA,"small"
"701","left_right_width","match",45,4,4,1.34860580018722,0.6,0.5,0.7,0.25,0.25,0.1,3.03780300007202,2.05,"exp1",0,0,-0.0999999999999999,0,1,0.833333333333333,1.75,0.853658536585366,1,1,0,0.487804878048781,0.571428571428571,0.0836236933797909,0.35,0.25,-0.0999999999999999,0,-0.166666666666666,NA,NA,"small"
"701","left_right_width","match",46,5,5,1.3191877999343,0.525,0.4,0.7,0.4,0.3,0.3,2.06530790007673,2.5,"exp1",0,-0.1,-0.125,0,0.75,0.761904761904762,1.9,0.76,2,1.5,-0.5,0.8,0.789473684210526,-0.0105263157894738,0.125,0.1,-0.025,-0.25,-0.238095238095238,NA,NA,"small"
"701","left_right_width","match",47,3,4,0.94988640001975,1.475,1,0.4,0.25,0.25,0.25,3.3274747999385,3.2,"exp1",1,0,-0.475,0.333333333333333,1,0.677966101694915,3.25,1.015625,0.75,1,0.25,0.234375,0.307692307692308,0.0733173076923077,1.225,0.75,-0.475,0,-0.322033898305085,NA,NA,"large"
"701","left_right_width","initial",48,5,4,4.49356490001082,0.9,0.4,0.4,0.55,0.3,0.3,1.16071070008911,4.15,"exp1",-1,-0.25,-0.5,-0.2,0.545454545454545,0.444444444444444,1.5,0.36144578313253,2.75,1.2,-1.55,0.662650602409638,0.8,0.137349397590361,0.35,0.1,-0.25,-0.454545454545455,-0.555555555555556,NA,NA,"middle"
"701","left_right_width","initial",49,5,4,0.935297700110823,0.7,0.8,0.4,0.4,0.3,0.3,2.1607375999447,3.2,"exp1",-1,-0.1,0.1,-0.2,0.75,1.14285714285714,2.7,0.84375,2,1.2,-0.8,0.625,0.444444444444444,-0.180555555555556,0.3,0.5,0.2,-0.25,0.142857142857143,NA,NA,"small"
"701","left_right_width","initial",50,3,3,0.871484800009057,0.7,1.3,1.3,0.25,0.3,0.1,1.60328979999758,1.65,"exp1",0,0.05,0.6,0,1.2,1.85714285714286,2.9,1.75757575757576,0.75,0.9,0.15,0.454545454545455,0.310344827586207,-0.144200626959248,0.45,1,0.55,0.2,0.857142857142857,NA,NA,"small"
"701","left_right_width","initial",51,5,4,0.684232699917629,0.9,1.2,1.2,0.25,0.2,0.2,1.21534850005992,3.85,"exp1",-1,-0.05,0.3,-0.2,0.8,1.33333333333333,3.8,0.987012987012987,1.25,0.8,-0.45,0.324675324675325,0.210526315789474,-0.114149008885851,0.65,1,0.35,-0.2,0.333333333333333,NA,NA,"middle"
"701","left_right_width","initial",52,4,3,0.799835999961942,0.9,0.9,0.9,0.55,0.35,0.35,0.687190199969336,3.25,"exp1",-1,-0.2,0,-0.25,0.636363636363636,1,2.15,0.661538461538462,2.2,1.05,-1.15,0.676923076923077,0.488372093023256,-0.188550983899821,0.35,0.55,0.2,-0.363636363636364,0,NA,NA,"middle"
"701","left_right_width","initial",1,4,3,0.974151100032032,0.7,0.8,0.5,0.4,0.4,0.4,1.81410990003496,2.5,"exp1",-1,0,0.1,-0.25,1,1.14285714285714,2,0.8,1.6,1.2,-0.4,0.64,0.6,-0.0399999999999999,0.3,0.4,0.1,0,0.142857142857143,NA,NA,"small"
"701","left_right_width","match",2,4,3,0.890757600078359,0.6,0.7,0.6,0.25,0.25,0.45,2.99820280005224,2.05,"exp1",-1,5.55111512312578e-17,0.1,-0.25,1,1.16666666666667,1.65,0.804878048780488,1,0.75,-0.25,0.487804878048781,0.454545454545455,-0.0332594235033258,0.35,0.45,0.1,2.22044604925031e-16,0.166666666666667,NA,NA,"small"
"701","left_right_width","initial",3,3,3,1.22127639991231,1.1,1,1.1,0.4,0.35,0.35,1.47540820017457,2.6,"exp1",0,-0.05,-0.1,0,0.875,0.909090909090909,2.35,0.903846153846154,1.2,1.05,-0.15,0.461538461538462,0.446808510638298,-0.0147299509001637,0.7,0.65,-0.05,-0.125,-0.090909090909091,NA,NA,"large"
"701","left_right_width","initial",4,4,3,0.603311100043356,1.1,1.05,0.8,0.4,0.45,0.45,1.71410689991899,3.7,"exp1",-1,0.05,-0.05,-0.25,1.125,0.954545454545454,2.55,0.689189189189189,1.6,1.35,-0.25,0.432432432432432,0.529411764705882,0.0969793322734499,0.7,0.6,-0.1,0.125,-0.0454545454545455,NA,NA,"large"
"701","left_right_width","initial",5,4,4,0.906709600007161,0.9,1,0.3,0.4,0.3,0.2,2.06926380004734,3.1,"exp1",0,-0.1,0.1,0,0.75,1.11111111111111,3.3,1.06451612903226,1.6,1.2,-0.4,0.516129032258065,0.363636363636364,-0.152492668621701,0.5,0.7,0.2,-0.25,0.111111111111111,NA,NA,"middle"
"701","left_right_width","initial",6,5,4,1.09987989999354,1.1,1,0.6,0.4,0.3,0.45,2.92746110004373,4.8,"exp1",-1,-0.1,-0.1,-0.2,0.75,0.909090909090909,3.3,0.6875,2,1.2,-0.8,0.416666666666667,0.363636363636364,-0.0530303030303029,0.7,0.7,-1.11022302462516e-16,-0.25,-0.090909090909091,NA,NA,"large"
"701","left_right_width","initial",7,4,4,0.925320700043812,0.9,0.8,0.8,0.55,0.3,0.2,3.03162689995952,3.25,"exp1",0,-0.25,-0.1,0,0.545454545454545,0.888888888888889,2.7,0.830769230769231,2.2,1.2,-1,0.676923076923077,0.444444444444444,-0.232478632478633,0.35,0.5,0.15,-0.454545454545455,-0.111111111111111,NA,NA,"middle"
"701","left_right_width","match",8,5,4,1.20736559992656,0.675,0.6,0.7,0.25,0.25,0.1,2.03787499992177,2.95,"exp1",-1,0,-0.0750000000000001,-0.2,1,0.888888888888889,2.05,0.694915254237288,1.25,1,-0.25,0.423728813559322,0.487804878048781,0.0640760644894585,0.425,0.35,-0.0750000000000001,0,-0.111111111111111,NA,NA,"small"
"701","left_right_width","match",9,5,5,0.897371600149199,0.525,0.45,0.7,0.25,0.2,0.15,3.03645649994723,2.35,"exp1",0,-0.05,-0.075,0,0.8,0.857142857142857,2,0.851063829787234,1.25,1,-0.25,0.531914893617021,0.5,-0.0319148936170213,0.275,0.25,-0.025,-0.2,-0.142857142857143,NA,NA,"small"
"701","left_right_width","match",10,5,4,0.843989199958742,0.825,0.9,0.5,0.25,0.25,0.3,1.91343290009536,3.55,"exp1",-1,0,0.0750000000000001,-0.2,1,1.09090909090909,2.95,0.830985915492958,1.25,1,-0.25,0.352112676056338,0.338983050847458,-0.0131296252088804,0.575,0.65,0.0750000000000001,0,0.090909090909091,NA,NA,"middle"
"701","left_right_width","initial",11,5,5,0.998337600147352,0.9,0.65,1.3,0.4,0.25,0.4,3.32535699987784,4,"exp1",0,-0.15,-0.25,0,0.625,0.722222222222222,2.85,0.7125,2,1.25,-0.75,0.5,0.43859649122807,-0.0614035087719297,0.5,0.4,-0.1,-0.375,-0.277777777777778,NA,NA,"middle"
"701","left_right_width","match",12,5,5,0.911587500013411,0.675,0.6,0.6,0.4,0.25,0.45,3.68987750005908,3.1,"exp1",0,-0.15,-0.0750000000000001,0,0.625,0.888888888888889,2.65,0.854838709677419,2,1.25,-0.75,0.645161290322581,0.471698113207547,-0.173463177115033,0.275,0.35,0.0749999999999999,-0.375,-0.111111111111111,NA,NA,"small"
"701","left_right_width","initial",13,5,5,1.33154610008933,0.9,0.6,0.8,0.55,0.35,0.2,4.81346950004809,4.15,"exp1",0,-0.2,-0.3,0,0.636363636363636,0.666666666666667,2.75,0.662650602409638,2.75,1.75,-1,0.662650602409638,0.636363636363636,-0.0262869660460021,0.35,0.25,-0.1,-0.363636363636364,-0.333333333333333,NA,NA,"middle"
"701","left_right_width","initial",14,3,2,0.767835200065747,0.9,0.9,1.6,0.4,0.35,0.2,3.96789050009102,2.2,"exp1",-1,-0.05,0,-0.333333333333333,0.875,1,1.25,0.568181818181818,1.2,0.7,-0.5,0.545454545454546,0.56,0.0145454545454544,0.5,0.55,0.05,-0.125,0,NA,NA,"middle"
"701","left_right_width","initial",15,4,3,1.37054009991698,0.9,0.75,0.9,0.25,0.2,0.4,6.43451970000751,2.95,"exp1",-1,-0.0499999999999999,-0.15,-0.25,0.8,0.833333333333333,1.7,0.576271186440678,1,0.6,-0.4,0.338983050847458,0.352941176470588,0.0139581256231307,0.65,0.55,-0.1,-0.2,-0.166666666666667,NA,NA,"middle"
"701","left_right_width","match",16,3,2,1.09058590000495,2.2,1.8,1.6,0.25,0.25,0.1,2.56609990005381,4.65,"exp1",-1,0,-0.4,-0.333333333333333,1,0.818181818181818,2.05,0.440860215053763,0.75,0.5,-0.25,0.161290322580645,0.24390243902439,0.0826121164437451,1.95,1.55,-0.4,0,-0.181818181818182,NA,NA,"large"
"701","left_right_width","match",17,5,3,1.11077959998511,0.825,0.8,0.8,0.55,0.4,0.4,1.06541269994341,3.85,"exp1",-2,-0.15,-0.025,-0.4,0.727272727272727,0.96969696969697,2,0.519480519480519,2.75,1.2,-1.55,0.714285714285714,0.6,-0.114285714285714,0.275,0.4,0.125,-0.272727272727273,-0.0303030303030303,NA,NA,"middle"
"701","left_right_width","match",18,4,3,0.962054499890655,0.783333333333333,1.05,1.1,0.25,0.2,0.3,1.99480770016089,2.6,"exp1",-1,-0.05,0.266666666666667,-0.25,0.8,1.34042553191489,2.3,0.884615384615385,1,0.6,-0.4,0.384615384615385,0.260869565217391,-0.123745819397993,0.533333333333333,0.85,0.316666666666667,-0.2,0.340425531914894,NA,NA,"small"
"701","left_right_width","match",19,3,2,0.792017899919301,1.8,1.5,1.6,0.25,0.25,0.35,1.68716649990529,3.85,"exp1",-1,0,-0.3,-0.333333333333333,1,0.833333333333333,1.75,0.454545454545455,0.75,0.5,-0.25,0.194805194805195,0.285714285714286,0.0909090909090909,1.55,1.25,-0.3,0,-0.166666666666667,NA,NA,"large"
"701","left_right_width","match",20,3,2,0.756652400130406,1.8,1.9,1.6,0.4,0.35,0.45,2.66155360010453,4,"exp1",-1,-0.05,0.1,-0.333333333333333,0.875,1.05555555555556,2.25,0.5625,1.2,0.7,-0.5,0.3,0.311111111111111,0.0111111111111111,1.4,1.55,0.15,-0.125,0.0555555555555556,NA,NA,"large"
"701","left_right_width","initial",21,5,4,0.840187999885529,0.7,0.7,0.3,0.4,0.35,0.2,2.11731700017117,3.2,"exp1",-1,-0.05,0,-0.2,0.875,1,2.45,0.765625,2,1.4,-0.6,0.625,0.571428571428572,-0.0535714285714285,0.3,0.35,0.05,-0.125,0,NA,NA,"small"
"701","left_right_width","initial",22,3,2,0.856191499857232,0.9,1.3,1.6,0.25,0.25,0.35,2.00449379999191,2.05,"exp1",-1,0,0.4,-0.333333333333333,1,1.44444444444444,1.55,0.75609756097561,0.75,0.5,-0.25,0.365853658536585,0.32258064516129,-0.0432730133752951,0.65,1.05,0.4,0,0.444444444444444,NA,NA,"middle"
"701","left_right_width","initial",23,5,4,1.04550479981117,1.1,1.2,1.2,0.55,0.45,0.45,0.874922699993476,4.95,"exp1",-1,-0.1,0.0999999999999999,-0.2,0.818181818181818,1.09090909090909,4.05,0.818181818181818,2.75,1.8,-0.95,0.555555555555556,0.444444444444444,-0.111111111111111,0.55,0.75,0.2,-0.181818181818182,0.0909090909090908,NA,NA,"large"
"701","left_right_width","initial",24,4,3,0.932628900045529,1.1,1.1,1.1,0.55,0.45,0.15,3.90256939991377,3.85,"exp1",-1,-0.1,0,-0.25,0.818181818181818,1,2.65,0.688311688311688,2.2,1.35,-0.85,0.571428571428571,0.509433962264151,-0.0619946091644206,0.55,0.65,0.1,-0.181818181818182,0,NA,NA,"large"
"701","left_right_width","match",25,4,3,1.77599270013161,0.733333333333333,0.65,0.3,0.25,0.25,0.25,2.37610670016147,2.45,"exp1",-1,0,-0.0833333333333334,-0.25,1,0.886363636363636,1.55,0.63265306122449,1,0.75,-0.25,0.408163265306122,0.483870967741935,0.075707702435813,0.483333333333333,0.4,-0.0833333333333334,0,-0.113636363636364,NA,NA,"small"
"701","left_right_width","initial",26,3,3,1.06219399999827,0.7,0.75,0.9,0.25,0.25,0.25,1.27472139988095,1.65,"exp1",0,0,0.05,0,1,1.07142857142857,1.75,1.06060606060606,0.75,0.75,0,0.454545454545455,0.428571428571429,-0.025974025974026,0.45,0.5,0.05,0,0.0714285714285715,NA,NA,"small"
"701","left_right_width","initial",27,3,3,1.24856819980778,0.7,0.7,0.8,0.4,0.25,0.25,1.26230660011061,1.8,"exp1",0,-0.15,0,0,0.625,1,1.65,0.916666666666667,1.2,0.75,-0.45,0.666666666666667,0.454545454545455,-0.212121212121212,0.3,0.45,0.15,-0.375,0,NA,NA,"small"
"701","left_right_width","initial",28,5,4,3.13263310003094,0.9,0.7,1.2,0.25,0.3,0.45,2.15869669988751,3.85,"exp1",-1,0.05,-0.2,-0.2,1.2,0.777777777777778,2.4,0.623376623376623,1.25,1.2,-0.0499999999999998,0.324675324675325,0.5,0.175324675324676,0.65,0.4,-0.25,0.2,-0.222222222222222,NA,NA,"middle"
"701","left_right_width","initial",29,3,2,1.07715069991536,1.1,1.6,1.6,0.55,0.6,0.1,2.82535819988698,2.75,"exp1",-1,0.0499999999999999,0.5,-0.333333333333333,1.09090909090909,1.45454545454545,2.2,0.8,1.65,1.2,-0.45,0.6,0.545454545454545,-0.0545454545454547,0.55,1,0.45,0.0909090909090908,0.454545454545455,NA,NA,"large"
"701","left_right_width","initial",30,4,3,0.869280399987474,0.7,0.6,0.6,0.25,0.25,0.25,0.641394700156525,2.35,"exp1",-1,0,-0.1,-0.25,1,0.857142857142857,1.45,0.617021276595745,1,0.75,-0.25,0.425531914893617,0.517241379310345,0.0917094644167278,0.45,0.35,-0.1,0,-0.142857142857143,NA,NA,"small"
"701","left_right_width","initial",31,5,4,0.840901399962604,0.7,1.1,1.1,0.25,0.2,0.45,1.63784930016845,3.05,"exp1",-1,-0.0499999999999999,0.4,-0.2,0.8,1.57142857142857,3.5,1.14754098360656,1.25,0.8,-0.45,0.409836065573771,0.228571428571429,-0.181264637002342,0.45,0.9,0.45,-0.2,0.571428571428572,NA,NA,"small"
"701","left_right_width","initial",32,5,5,1.76548750000075,1.1,1,1,0.25,0.15,0.15,0.846349499886855,4.65,"exp1",0,-0.1,-0.1,0,0.6,0.909090909090909,4.15,0.89247311827957,1.25,0.75,-0.5,0.268817204301075,0.180722891566265,-0.0880943127348102,0.85,0.85,-1.11022302462516e-16,-0.4,-0.090909090909091,NA,NA,"large"
"701","left_right_width","match",33,3,3,0.693329100031406,2.2,1.5,0.7,0.55,0.45,0.35,5.22460020007566,4.95,"exp1",0,-0.1,-0.7,0,0.818181818181818,0.681818181818182,3.45,0.696969696969697,1.65,1.35,-0.3,0.333333333333333,0.391304347826087,0.0579710144927535,1.65,1.05,-0.6,-0.181818181818182,-0.318181818181818,NA,NA,"large"
"701","left_right_width","match",34,4,4,0.864901100052521,0.6,0.5,0.3,0.4,0.3,0.2,2.34934689989313,2.2,"exp1",0,-0.1,-0.1,0,0.75,0.833333333333333,1.8,0.818181818181818,1.6,1.2,-0.4,0.727272727272727,0.666666666666667,-0.0606060606060607,0.2,0.2,-5.55111512312578e-17,-0.25,-0.166666666666667,NA,NA,"small"
"701","left_right_width","match",35,3,3,0.828679000027478,1.475,0.8,0.6,0.25,0.2,0.45,4.05874650017358,3.2,"exp1",0,-0.0499999999999999,-0.675,0,0.8,0.542372881355932,1.8,0.5625,0.75,0.6,-0.15,0.234375,0.333333333333333,0.0989583333333334,1.225,0.6,-0.625,-0.2,-0.457627118644068,NA,NA,"large"
"701","left_right_width","match",36,4,4,1.08738429984078,0.466666666666667,0.4,0.9,0.25,0.2,0.1,2.73852379992604,1.65,"exp1",0,-0.05,-0.0666666666666667,0,0.8,0.857142857142857,1.4,0.848484848484849,1,0.8,-0.2,0.606060606060606,0.571428571428571,-0.0346320346320347,0.216666666666667,0.2,-0.0166666666666667,-0.2,-0.142857142857143,NA,NA,"small"
"701","left_right_width","initial",37,3,4,1.27628769981675,0.7,0.5,1,0.55,0.35,0.45,2.98384850006551,1.95,"exp1",1,-0.2,-0.2,0.333333333333333,0.636363636363636,0.714285714285714,1.85,0.948717948717949,1.65,1.4,-0.25,0.846153846153846,0.756756756756757,-0.0893970893970895,0.15,0.15,5.55111512312578e-17,-0.363636363636364,-0.285714285714286,NA,NA,"small"
"701","left_right_width","initial",38,4,4,1.14399040001445,0.7,0.5,0.5,0.55,0.3,0.2,2.64947669999674,2.65,"exp1",0,-0.25,-0.2,0,0.545454545454545,0.714285714285714,1.8,0.679245283018868,2.2,1.2,-1,0.830188679245283,0.666666666666667,-0.163522012578617,0.15,0.2,0.0500000000000001,-0.454545454545455,-0.285714285714286,NA,NA,"small"
"701","left_right_width","match",39,4,4,0.934619599953294,0.733333333333333,0.7,1,0.55,0.4,0.45,3.02390409982763,2.75,"exp1",0,-0.15,-0.0333333333333333,0,0.727272727272727,0.954545454545455,2.5,0.909090909090909,2.2,1.6,-0.6,0.8,0.64,-0.16,0.183333333333333,0.3,0.116666666666667,-0.272727272727273,-0.0454545454545454,NA,NA,"small"
"701","left_right_width","initial",40,5,4,0.766070500016212,0.7,0.8,0.5,0.55,0.45,0.2,4.84677609987557,3.35,"exp1",-1,-0.1,0.1,-0.2,0.818181818181818,1.14285714285714,2.85,0.850746268656717,2.75,1.8,-0.95,0.82089552238806,0.631578947368421,-0.189316575019639,0.15,0.35,0.2,-0.181818181818182,0.142857142857143,NA,NA,"small"
"701","left_right_width","match",41,5,4,0.92625610018149,0.675,0.7,0.5,0.55,0.6,0.2,6.07194120017812,3.25,"exp1",-1,0.0499999999999999,0.0249999999999999,-0.2,1.09090909090909,1.03703703703704,2.7,0.830769230769231,2.75,2.4,-0.35,0.846153846153846,0.888888888888889,0.0427350427350428,0.125,0.1,-0.025,0.0909090909090908,0.0370370370370369,NA,NA,"small"
"701","left_right_width","initial",42,3,2,0.667849499965087,0.9,0.6,1.6,0.55,0.45,0.4,3.15192009997554,2.35,"exp1",-1,-0.1,-0.3,-0.333333333333333,0.818181818181818,0.666666666666667,1.05,0.446808510638298,1.65,0.9,-0.75,0.702127659574468,0.857142857142857,0.155015197568389,0.35,0.15,-0.2,-0.181818181818182,-0.333333333333333,NA,NA,"middle"
"701","left_right_width","match",43,3,2,0.773601200198755,1.4,1.6,1.6,0.55,0.5,0.3,1.62590109999292,3.35,"exp1",-1,-0.0500000000000001,0.2,-0.333333333333333,0.909090909090909,1.14285714285714,2.1,0.626865671641791,1.65,1,-0.65,0.492537313432836,0.476190476190476,-0.0163468372423597,0.85,1.1,0.25,-0.0909090909090911,0.142857142857143,NA,NA,"large"
"701","left_right_width","match",44,3,3,1.24482019990683,2.2,1.1,0.7,0.4,0.4,0.4,4.25001340010203,4.8,"exp1",0,0,-1.1,0,1,0.5,2.6,0.541666666666667,1.2,1.2,0,0.25,0.461538461538462,0.211538461538462,1.8,0.7,-1.1,0,-0.5,NA,NA,"large"
"701","left_right_width","match",45,4,2,0.753296800190583,0.466666666666667,0.5,1.6,0.4,0.4,0.4,3.44215849996544,1.8,"exp1",-2,0,0.0333333333333333,-0.5,1,1.07142857142857,0.9,0.5,1.6,0.8,-0.8,0.888888888888889,0.888888888888889,0,0.0666666666666667,0.1,0.0333333333333333,0,0.0714285714285714,NA,NA,"small"
"701","left_right_width","match",46,3,2,0.715380600187927,1.4,1.9,1.6,0.25,0.2,0.15,1.56604409986176,3.05,"exp1",-1,-0.05,0.5,-0.333333333333333,0.8,1.35714285714286,2.1,0.688524590163935,0.75,0.4,-0.35,0.245901639344262,0.19047619047619,-0.0554254488680719,1.15,1.7,0.55,-0.2,0.357142857142857,NA,NA,"large"
"701","left_right_width","match",47,3,2,1.00059750000946,1.8,1.6,1.6,0.55,0.5,0.3,1.80727149988525,4.15,"exp1",-1,-0.0500000000000001,-0.2,-0.333333333333333,0.909090909090909,0.888888888888889,2.1,0.506024096385542,1.65,1,-0.65,0.397590361445783,0.476190476190476,0.078600114744693,1.25,1.1,-0.15,-0.0909090909090911,-0.111111111111111,NA,NA,"large"
"701","left_right_width","initial",48,3,2,0.723920300137252,1.1,1.5,1.6,0.25,0.25,0.45,2.34210409992374,2.45,"exp1",-1,5.55111512312578e-17,0.4,-0.333333333333333,1,1.36363636363636,1.75,0.714285714285714,0.75,0.5,-0.25,0.306122448979592,0.285714285714286,-0.020408163265306,0.85,1.25,0.4,2.22044604925031e-16,0.363636363636364,NA,NA,"large"
"701","left_right_width","match",49,5,4,1.00123369996436,0.525,0.5,0.4,0.4,0.3,0.2,2.16011830000207,2.5,"exp1",-1,-0.1,-0.025,-0.2,0.75,0.952380952380952,1.8,0.72,2,1.2,-0.8,0.8,0.666666666666667,-0.133333333333333,0.125,0.2,0.075,-0.25,-0.0476190476190477,NA,NA,"small"
"701","left_right_width","match",50,5,4,0.780735000036657,0.8625,0.7,0.7,0.25,0.15,0.15,0.860835499828681,3.7,"exp1",-1,-0.1,-0.1625,-0.2,0.6,0.811594202898551,2.25,0.608108108108108,1.25,0.6,-0.65,0.337837837837838,0.266666666666667,-0.0711711711711711,0.6125,0.55,-0.0625000000000001,-0.4,-0.188405797101449,NA,NA,"middle"
"701","left_right_width","initial",51,4,3,0.971567499917001,1.1,1.1,1.1,0.25,0.3,0.4,1.44345350004733,3.55,"exp1",-1,0.05,0,-0.25,1.2,1,2.5,0.704225352112676,1,0.9,-0.0999999999999999,0.28169014084507,0.36,0.0783098591549297,0.85,0.8,-0.05,0.2,0,NA,NA,"large"
"701","left_right_width","match",52,4,3,1.21232819999568,0.6,0.65,1.1,0.55,0.4,0.2,4.26720519992523,2.35,"exp1",-1,-0.15,0.05,-0.25,0.727272727272727,1.08333333333333,1.7,0.723404255319149,2.2,1.2,-1,0.936170212765957,0.705882352941177,-0.230287859824781,0.0499999999999999,0.25,0.2,-0.272727272727273,0.0833333333333334,NA,NA,"small"
"702","up_down_width","initial",1,4,4,1.6243712999858,0.9,0.7,0.8,0.4,0.3,0.3,3.56692839995958,3.1,"exp1",0,-0.1,-0.2,0,0.75,0.777777777777778,2.4,0.774193548387097,1.6,1.2,-0.4,0.516129032258065,0.5,-0.0161290322580644,0.5,0.4,-0.1,-0.25,-0.222222222222222,NA,NA,"middle"
"702","up_down_width","match",2,3,3,1.2466395997908,1.8,1.1,0.7,0.55,0.45,0.25,3.54708599997684,4.15,"exp1",0,-0.1,-0.7,0,0.818181818181818,0.611111111111111,2.65,0.63855421686747,1.65,1.35,-0.3,0.397590361445783,0.509433962264151,0.111843600818368,1.25,0.65,-0.6,-0.181818181818182,-0.388888888888889,NA,NA,"large"
"702","up_down_width","initial",3,5,4,0.865934500005096,0.7,0.9,1.2,0.4,0.5,0.25,5.53453649976291,3.2,"exp1",-1,0.0999999999999999,0.2,-0.2,1.25,1.28571428571429,3.2,1,2,2,-2.22044604925031e-16,0.625,0.625,-1.11022302462516e-16,0.3,0.4,0.1,0.25,0.285714285714286,NA,NA,"small"
"702","up_down_width","match",4,4,4,0.990594499744475,0.6,0.8,0.8,0.55,0.65,0.2,4.57946749986149,2.35,"exp1",0,0.1,0.2,0,1.18181818181818,1.33333333333333,3.05,1.29787234042553,2.2,2.6,0.4,0.936170212765957,0.852459016393443,-0.0837111963725149,0.0499999999999999,0.15,0.1,0.181818181818182,0.333333333333333,NA,NA,"small"
"702","up_down_width","match",5,4,4,1.01043889997527,0.6,1,1,0.25,0.25,0.25,1.31312149995938,2.05,"exp1",0,0,0.4,0,1,1.66666666666667,3.25,1.58536585365854,1,1,0,0.487804878048781,0.307692307692308,-0.180112570356473,0.35,0.75,0.4,0,0.666666666666667,NA,NA,"small"
"702","up_down_width","match",6,5,5,1.39849089994095,0.525,0.6,0.7,0.25,0.3,0.55,5.12628509989008,2.35,"exp1",0,0.05,0.075,0,1.2,1.14285714285714,2.7,1.14893617021277,1.25,1.5,0.25,0.531914893617021,0.555555555555556,0.0236406619385343,0.275,0.3,0.0249999999999999,0.2,0.142857142857143,NA,NA,"small"
"702","up_down_width","match",7,5,4,1.01732639991678,0.525,0.6,0.6,0.4,0.45,0.2,2.18928409996442,2.5,"exp1",-1,0.0499999999999999,0.075,-0.2,1.125,1.14285714285714,2.25,0.9,2,1.8,-0.2,0.8,0.8,-1.11022302462516e-16,0.125,0.15,0.025,0.125,0.142857142857143,NA,NA,"small"
"702","up_down_width","match",8,3,3,1.40914810006507,2.2,1.2,1,0.25,0.25,0.45,5.48924009967595,4.65,"exp1",0,5.55111512312578e-17,-1,0,1,0.545454545454545,2.65,0.56989247311828,0.75,0.75,2.22044604925031e-16,0.161290322580645,0.283018867924528,0.121728545343883,1.95,0.95,-1,2.22044604925031e-16,-0.454545454545455,NA,NA,"large"
"702","up_down_width","match",9,3,3,1.12894949992187,1.4,0.8,0.4,0.55,0.45,0.3,4.16595879988745,3.35,"exp1",0,-0.1,-0.6,0,0.818181818181818,0.571428571428572,2.05,0.611940298507463,1.65,1.35,-0.3,0.492537313432836,0.658536585365854,0.165999271933018,0.85,0.35,-0.5,-0.181818181818182,-0.428571428571428,NA,NA,"large"
"702","up_down_width","initial",10,5,5,1.05225899978541,1.1,0.7,0.7,0.25,0.25,0.3,5.37268529972062,4.65,"exp1",0,0,-0.4,0,1,0.636363636363636,3.05,0.655913978494624,1.25,1.25,0,0.268817204301075,0.409836065573771,0.141018861272695,0.85,0.45,-0.4,0,-0.363636363636364,NA,NA,"large"
"702","up_down_width","match",11,4,4,1.32333739986643,0.466666666666667,0.6,0.6,0.4,0.45,0.4,1.94104729988612,1.8,"exp1",0,0.05,0.133333333333333,0,1.125,1.28571428571429,2.25,1.25,1.6,1.8,0.2,0.888888888888889,0.8,-0.0888888888888889,0.0666666666666667,0.15,0.0833333333333333,0.125,0.285714285714286,NA,NA,"small"
"702","up_down_width","match",12,4,3,1.22710429993458,0.733333333333333,0.85,0.7,0.25,0.2,0.5,4.03987449989654,2.45,"exp1",-1,-0.0499999999999999,0.116666666666667,-0.25,0.8,1.15909090909091,1.9,0.775510204081633,1,0.6,-0.4,0.408163265306122,0.315789473684211,-0.0923737916219118,0.483333333333333,0.65,0.166666666666667,-0.2,0.159090909090909,NA,NA,"small"
"702","up_down_width","initial",13,5,4,0.792176799848676,0.7,0.7,0.5,0.55,0.55,0.2,3.31841719988734,3.35,"exp1",-1,-1.11022302462516e-16,0,-0.2,1,1,2.65,0.791044776119403,2.75,2.2,-0.55,0.82089552238806,0.830188679245283,0.00929315685722332,0.15,0.15,1.11022302462516e-16,-2.01858731750028e-16,0,NA,NA,"small"
"702","up_down_width","match",14,5,4,0.7899904998485,0.825,0.7,0.5,0.55,0.6,0.2,4.73942049988545,3.85,"exp1",-1,0.0499999999999999,-0.125,-0.2,1.09090909090909,0.848484848484848,2.7,0.701298701298701,2.75,2.4,-0.35,0.714285714285714,0.888888888888889,0.174603174603175,0.275,0.1,-0.175,0.0909090909090908,-0.151515151515152,NA,NA,"middle"
