"subID","keyboard_condition","trial_type","trial_number","correct_num","response_num","response_rt","correct_space","correct_width","response_width","probe_width","adjustment_duration","stim_length","exp_version","number_deviation","width_deviation","number_deviation_ratio","width_deviation_ratio","actual_pooled_width","response_pooled_width","pooled_width_deviation","width_deviation_relative","absolute_width_deviation"
"p301","up_down_width","match",1,4,3,2.14915799995651,0.733333333333333,0.55,0.45,0.3,3.61523940000916,2.75,"exp2",-1,-0.1,-0.25,0.818181818181818,2.2,1.35,-0.85,-0.181818181818182,0.1
"p301","up_down_width","match",2,3,3,1.48840730002848,1.8,0.25,0.25,0.45,2.38780639995821,3.85,"exp2",0,5.55111512312578e-17,0,1,0.75,0.75,2.22044604925031e-16,2.22044604925031e-16,5.55111512312578e-17
"p301","up_down_width","initial",3,5,5,2.11300000001211,0.9,0.55,0.4,0.4,3.16352380003082,4.15,"exp2",0,-0.15,0,0.727272727272727,2.75,2,-0.75,-0.272727272727273,0.15
"p301","up_down_width","initial",4,4,3,2.99029699998209,0.9,0.25,0.25,0.3,1.5578123999876,2.95,"exp2",-1,0,-0.25,1,1,0.75,-0.25,0,0
"p301","up_down_width","match",5,3,2,1.89649220003048,2.2,0.25,0.35,0.35,2.31535849999636,4.65,"exp2",-1,0.1,-0.333333333333333,1.4,0.75,0.7,-0.05,0.4,0.1
"p301","up_down_width","match",6,4,4,3.07389469997725,0.466666666666667,0.25,0.3,0.5,4.90125610004179,1.65,"exp2",0,0.05,0,1.2,1,1.2,0.2,0.2,0.05
"p301","up_down_width","initial",7,4,3,2.90102370001841,0.9,0.4,0.4,0.25,2.38410399999702,3.1,"exp2",-1,-5.55111512312578e-17,-0.25,1,1.6,1.2,-0.4,-1.38777878078145e-16,5.55111512312578e-17
"p301","up_down_width","match",8,5,4,2.75492540001869,0.825,0.25,0.3,0.25,2.94927100004861,3.55,"exp2",-1,0.05,-0.2,1.2,1.25,1.2,-0.05,0.2,0.05
"p301","up_down_width","initial",9,4,4,2.28473279997706,0.9,0.55,0.3,0.2,3.8228404999827,3.25,"exp2",0,-0.25,0,0.545454545454545,2.2,1.2,-1,-0.454545454545455,0.25
"p301","up_down_width","initial",10,5,4,1.9507142000366,1.1,0.25,0.2,0.3,1.91924370004563,4.65,"exp2",-1,-0.05,-0.2,0.8,1.25,0.8,-0.45,-0.2,0.05
"p301","up_down_width","match",11,5,4,5.63583980000112,0.675,0.4,0.3,0.5,2.04949910001596,3.1,"exp2",-1,-0.1,-0.2,0.75,2,1.2,-0.8,-0.25,0.1
"p301","up_down_width","match",12,4,4,1.20700450002914,0.6,0.4,0.3,0.4,1.55751519999467,2.2,"exp2",0,-0.1,0,0.75,1.6,1.2,-0.4,-0.25,0.1
"p301","up_down_width","match",13,3,3,1.37443440000061,2.2,0.55,0.5,0.55,2.66094289999455,4.95,"exp2",0,-0.05,0,0.909090909090909,1.65,1.5,-0.15,-0.090909090909091,0.05
"p301","up_down_width","match",14,4,3,2.41846070002066,0.783333333333333,0.25,0.3,0.3,4.8009475999861,2.6,"exp2",-1,0.05,-0.25,1.2,1,0.9,-0.1,0.2,0.05
"p301","up_down_width","initial",15,4,4,2.33460599998944,1.1,0.55,0.35,0.3,2.89553179999348,3.85,"exp2",0,-0.2,0,0.636363636363636,2.2,1.4,-0.8,-0.363636363636364,0.2
"p301","up_down_width","initial",16,3,2,1.4636593000032,0.7,0.25,0.3,0.45,1.91742320003686,1.65,"exp2",-1,0.05,-0.333333333333333,1.2,0.75,0.6,-0.15,0.2,0.05
"p301","up_down_width","match",17,3,2,1.42780860001221,1.475,0.25,0.15,0.55,5.83418439998059,3.2,"exp2",-1,-0.0999999999999999,-0.333333333333333,0.6,0.75,0.3,-0.45,-0.4,0.0999999999999999
"p301","up_down_width","initial",18,3,2,1.79049290000694,1.1,0.4,0.35,0.35,1.41327359998832,2.6,"exp2",-1,-0.05,-0.333333333333333,0.875,1.2,0.7,-0.5,-0.125,0.05
"p301","up_down_width","match",19,3,3,1.70987220003735,1.8,0.55,0.45,0.2,3.89629459998105,4.15,"exp2",0,-0.1,0,0.818181818181818,1.65,1.35,-0.3,-0.181818181818182,0.1
"p301","up_down_width","match",20,5,5,3.01336630003061,0.525,0.4,0.35,0.55,6.20445700001437,2.5,"exp2",0,-0.05,0,0.875,2,1.75,-0.25,-0.125,0.05
"p301","up_down_width","initial",21,3,2,1.90910700004315,1.1,0.55,0.4,0.5,2.96880159998545,2.75,"exp2",-1,-0.15,-0.333333333333333,0.727272727272727,1.65,0.8,-0.85,-0.272727272727273,0.15
"p301","up_down_width","match",22,4,3,2.40846700000111,0.6,0.55,0.5,0.3,3.17434899997897,2.35,"exp2",-1,-0.0500000000000001,-0.25,0.909090909090909,2.2,1.5,-0.7,-0.0909090909090911,0.0500000000000001
"p301","up_down_width","match",23,4,4,2.23214189999271,0.6,0.25,0.2,0.3,2.71839289995842,2.05,"exp2",0,-0.05,0,0.8,1,0.8,-0.2,-0.2,0.05
"p301","up_down_width","initial",24,4,5,2.50117640005192,0.7,0.25,0.2,0.2,1.67983560002176,2.35,"exp2",1,-0.05,0.25,0.8,1,1,0,-0.2,0.05
"p301","up_down_width","match",25,3,2,1.87594920000993,1.4,0.55,0.4,0.25,2.67972680000821,3.35,"exp2",-1,-0.15,-0.333333333333333,0.727272727272727,1.65,0.8,-0.85,-0.272727272727273,0.15
"p301","up_down_width","initial",26,3,2,1.52307549997931,0.9,0.55,0.4,0.2,4.2768161999993,2.35,"exp2",-1,-0.15,-0.333333333333333,0.727272727272727,1.65,0.8,-0.85,-0.272727272727273,0.15
"p301","up_down_width","initial",27,5,5,2.06094070000108,0.7,0.4,0.4,0.55,2.74646059999941,3.2,"exp2",0,0,0,1,2,2,0,0,0
"p301","up_down_width","match",28,5,5,1.77830900001572,0.525,0.25,0.25,0.45,2.31573400000343,2.35,"exp2",0,5.55111512312578e-17,0,1,1.25,1.25,2.22044604925031e-16,2.22044604925031e-16,5.55111512312578e-17
"p301","up_down_width","match",29,5,5,1.07364469999447,0.675,0.25,0.25,0.55,5.44551340001635,2.95,"exp2",0,5.55111512312578e-17,0,1,1.25,1.25,2.22044604925031e-16,2.22044604925031e-16,5.55111512312578e-17
"p301","up_down_width","match",30,3,2,2.67173900001217,1.8,0.4,0.4,0.45,1.82723319996148,4,"exp2",-1,0,-0.333333333333333,1,1.2,0.8,-0.4,0,0
"p301","up_down_width","initial",31,3,2,0.906929299992044,0.9,0.25,0.3,0.25,4.05380309995962,2.05,"exp2",-1,0.05,-0.333333333333333,1.2,0.75,0.6,-0.15,0.2,0.05
"p301","up_down_width","match",32,4,3,1.28062330000103,0.466666666666667,0.4,0.35,0.55,3.81993709999369,1.8,"exp2",-1,-0.05,-0.25,0.875,1.6,1.05,-0.55,-0.125,0.05
"p301","up_down_width","initial",33,5,4,1.99071769998409,1.1,0.55,0.45,0.25,2.74198320001597,4.95,"exp2",-1,-0.1,-0.2,0.818181818181818,2.75,1.8,-0.95,-0.181818181818182,0.1
"p301","up_down_width","initial",34,4,3,2.49721310002496,1.1,0.25,0.25,0.5,2.5406119999825,3.55,"exp2",-1,5.55111512312578e-17,-0.25,1,1,0.75,-0.25,2.22044604925031e-16,5.55111512312578e-17
"p301","up_down_width","initial",35,3,3,2.99165260000154,0.9,0.4,0.3,0.4,1.35094319999916,2.2,"exp2",0,-0.1,0,0.75,1.2,0.9,-0.3,-0.25,0.1
"p301","up_down_width","match",36,3,3,1.81843200000003,1.4,0.25,0.3,0.45,1.75977860001149,3.05,"exp2",0,0.05,0,1.2,0.75,0.9,0.15,0.2,0.05
"p301","up_down_width","initial",37,5,4,1.57959929999197,1.1,0.4,0.35,0.2,2.63434200000484,4.8,"exp2",-1,-0.05,-0.2,0.875,2,1.4,-0.6,-0.125,0.05
"p301","up_down_width","match",38,5,5,1.74766220001038,0.8625,0.25,0.35,0.55,2.39632420003181,3.7,"exp2",0,0.1,0,1.4,1.25,1.75,0.5,0.4,0.1
"p301","up_down_width","initial",39,3,2,1.93049089994747,0.7,0.55,0.45,0.35,1.83604389999527,1.95,"exp2",-1,-0.1,-0.333333333333333,0.818181818181818,1.65,0.9,-0.75,-0.181818181818182,0.1
"p301","up_down_width","match",40,4,3,1.44531759998063,0.733333333333333,0.25,0.25,0.5,3.27513850003015,2.45,"exp2",-1,5.55111512312578e-17,-0.25,1,1,0.75,-0.25,2.22044604925031e-16,5.55111512312578e-17
"p301","up_down_width","match",41,5,4,3.73227149999002,0.675,0.55,0.5,0.35,1.79032889998052,3.25,"exp2",-1,-0.0500000000000001,-0.2,0.909090909090909,2.75,2,-0.75,-0.0909090909090911,0.0500000000000001
"p301","up_down_width","initial",42,5,4,1.30954440002097,0.7,0.55,0.55,0.2,3.49617910000961,3.35,"exp2",-1,-1.11022302462516e-16,-0.2,1,2.75,2.2,-0.55,-2.01858731750028e-16,1.11022302462516e-16
"p301","up_down_width","initial",43,5,5,1.22235270001693,0.7,0.25,0.1,0.55,5.29914580000332,3.05,"exp2",0,-0.15,0,0.4,1.25,0.5,-0.75,-0.6,0.15
"p301","up_down_width","initial",44,4,4,5.39367170003243,0.7,0.55,0.45,0.5,3.03222489997279,2.65,"exp2",0,-0.1,0,0.818181818181818,2.2,1.8,-0.4,-0.181818181818182,0.1
"p301","up_down_width","initial",45,4,4,1.64917250000872,0.7,0.4,0.3,0.5,2.89304469997296,2.5,"exp2",0,-0.1,0,0.75,1.6,1.2,-0.4,-0.25,0.1
"p301","up_down_width","match",46,3,3,3.40519710001536,2.2,0.4,0.3,0.2,2.48417770001106,4.8,"exp2",0,-0.1,0,0.75,1.2,0.9,-0.3,-0.25,0.1
"p301","up_down_width","initial",47,3,2,2.15170440002112,1.1,0.25,0.2,0.3,2.59171999996761,2.45,"exp2",-1,-0.05,-0.333333333333333,0.8,0.75,0.4,-0.35,-0.2,0.05
"p301","up_down_width","initial",48,5,5,3.75900120002916,0.9,0.4,0.2,0.4,2.05599789996631,4,"exp2",0,-0.2,0,0.5,2,1,-1,-0.5,0.2
"p301","up_down_width","match",49,5,5,2.50552349997452,0.825,0.55,0.35,0.4,3.74800229998073,3.85,"exp2",0,-0.2,0,0.636363636363636,2.75,1.75,-1,-0.363636363636364,0.2
"p301","up_down_width","initial",50,4,4,1.88698520004982,1.1,0.4,0.35,0.4,1.61795049998909,3.7,"exp2",0,-0.05,0,0.875,1.6,1.4,-0.2,-0.125,0.05
"p301","up_down_width","initial",51,5,5,1.67902260000119,0.9,0.25,0.3,0.25,1.53096689999802,3.85,"exp2",0,0.05,0,1.2,1.25,1.5,0.25,0.2,0.05
"p301","up_down_width","initial",52,3,2,1.74237849999918,0.7,0.4,0.35,0.45,1.86473680002382,1.8,"exp2",-1,-0.05,-0.333333333333333,0.875,1.2,0.7,-0.5,-0.125,0.05
"p301","up_down_width","initial",1,3,2,2.72562720003771,0.7,0.55,0.4,0.35,2.51958670001477,1.95,"exp2",-1,-0.15,-0.333333333333333,0.727272727272727,1.65,0.8,-0.85,-0.272727272727273,0.15
"p301","up_down_width","match",2,5,5,2.26236990001053,0.525,0.4,0.3,0.2,2.15469919994939,2.5,"exp2",0,-0.1,0,0.75,2,1.5,-0.5,-0.25,0.1
"p301","up_down_width","initial",3,5,4,1.29131459997734,0.9,0.55,0.35,0.4,2.40600540000014,4.15,"exp2",-1,-0.2,-0.2,0.636363636363636,2.75,1.4,-1.35,-0.363636363636364,0.2
"p301","up_down_width","initial",4,3,2,2.49346799997147,0.7,0.4,0.3,0.2,1.89677049999591,1.8,"exp2",-1,-0.1,-0.333333333333333,0.75,1.2,0.6,-0.6,-0.25,0.1
"p301","up_down_width","match",5,3,3,2.56553229998099,2.2,0.55,0.35,0.3,1.42230109998491,4.95,"exp2",0,-0.2,0,0.636363636363636,1.65,1.05,-0.6,-0.363636363636364,0.2
"p301","up_down_width","match",6,5,5,2.15241499996046,0.8625,0.25,0.15,0.25,2.32078990002628,3.7,"exp2",0,-0.1,0,0.6,1.25,0.75,-0.5,-0.4,0.1
"p301","up_down_width","match",7,4,3,2.43974780000281,0.466666666666667,0.4,0.3,0.25,1.52493730001152,1.8,"exp2",-1,-0.1,-0.25,0.75,1.6,0.9,-0.7,-0.25,0.1
"p301","up_down_width","match",8,5,5,1.73826349998126,0.825,0.55,0.3,0.3,1.78043639997486,3.85,"exp2",0,-0.25,0,0.545454545454545,2.75,1.5,-1.25,-0.454545454545455,0.25
"p301","up_down_width","initial",9,4,4,1.77503630000865,1.1,0.4,0.35,0.3,1.14410909998696,3.7,"exp2",0,-0.05,0,0.875,1.6,1.4,-0.2,-0.125,0.05
"p301","up_down_width","initial",10,3,2,1.8159139000345,1.1,0.55,0.4,0.4,1.3904311999795,2.75,"exp2",-1,-0.15,-0.333333333333333,0.727272727272727,1.65,0.8,-0.85,-0.272727272727273,0.15
"p301","up_down_width","initial",11,4,4,1.47492639999837,0.7,0.55,0.4,0.5,1.78264879999915,2.65,"exp2",0,-0.15,0,0.727272727272727,2.2,1.6,-0.6,-0.272727272727273,0.15
"p301","up_down_width","match",12,4,3,2.03513520001434,0.6,0.25,0.2,0.3,2.54455439996673,2.05,"exp2",-1,-0.05,-0.25,0.8,1,0.6,-0.4,-0.2,0.05
"p301","up_down_width","match",13,3,3,1.76195549999829,2.2,0.4,0.25,0.45,3.45088309998391,4.8,"exp2",0,-0.15,0,0.625,1.2,0.75,-0.45,-0.375,0.15
"p301","up_down_width","match",14,4,3,3.98264460003702,0.6,0.4,0.35,0.55,2.68612209998537,2.2,"exp2",-1,-0.05,-0.25,0.875,1.6,1.05,-0.55,-0.125,0.05
"p301","up_down_width","initial",15,4,4,2.42727669997839,1.1,0.25,0.2,0.4,4.00958940002602,3.55,"exp2",0,-0.0499999999999999,0,0.8,1,0.8,-0.2,-0.2,0.0499999999999999
"p301","up_down_width","initial",16,4,3,2.10106760001509,0.7,0.4,0.25,0.5,3.05623749998631,2.5,"exp2",-1,-0.15,-0.25,0.625,1.6,0.75,-0.85,-0.375,0.15
"p301","up_down_width","match",17,3,3,2.60589470004197,2.2,0.25,0.2,0.5,4.5328364999732,4.65,"exp2",0,-0.0499999999999999,0,0.8,0.75,0.6,-0.15,-0.2,0.0499999999999999
"p301","up_down_width","initial",18,3,2,1.6926026000292,1.1,0.25,0.2,0.4,1.97572210000362,2.45,"exp2",-1,-0.0499999999999999,-0.333333333333333,0.8,0.75,0.4,-0.35,-0.2,0.0499999999999999
"p301","up_down_width","initial",19,3,3,2.19638099998701,1.1,0.4,0.25,0.4,1.66097179998178,2.6,"exp2",0,-0.15,0,0.625,1.2,0.75,-0.45,-0.375,0.15
"p301","up_down_width","initial",20,4,4,1.97952580003766,0.9,0.55,0.3,0.2,2.50774820003426,3.25,"exp2",0,-0.25,0,0.545454545454545,2.2,1.2,-1,-0.454545454545455,0.25
"p301","up_down_width","match",21,5,5,1.56583620002493,0.525,0.25,0.2,0.2,2.22220960003324,2.35,"exp2",0,-0.05,0,0.8,1.25,1,-0.25,-0.2,0.05
"p301","up_down_width","initial",22,3,2,2.05696600000374,0.9,0.25,0.2,0.45,2.32491409999784,2.05,"exp2",-1,-0.0499999999999999,-0.333333333333333,0.8,0.75,0.4,-0.35,-0.2,0.0499999999999999
"p301","up_down_width","initial",23,4,4,2.07548370002769,1.1,0.55,0.3,0.55,2.32752370001981,3.85,"exp2",0,-0.25,0,0.545454545454546,2.2,1.2,-1,-0.454545454545455,0.25
"p301","up_down_width","match",24,5,5,2.04885369999101,0.675,0.25,0.15,0.3,2.30177999997977,2.95,"exp2",0,-0.1,0,0.6,1.25,0.75,-0.5,-0.4,0.1
"p301","up_down_width","initial",25,3,2,1.7010737999808,0.7,0.25,0.15,0.3,2.67190620000474,1.65,"exp2",-1,-0.1,-0.333333333333333,0.6,0.75,0.3,-0.45,-0.4,0.1
"p301","up_down_width","initial",26,5,5,2.00856550002936,1.1,0.55,0.4,0.25,1.95927789999405,4.95,"exp2",0,-0.15,0,0.727272727272727,2.75,2,-0.75,-0.272727272727273,0.15
"p301","up_down_width","match",27,5,4,2.61840559996199,0.675,0.55,0.4,0.3,1.80924609996146,3.25,"exp2",-1,-0.15,-0.2,0.727272727272727,2.75,1.6,-1.15,-0.272727272727273,0.15
"p301","up_down_width","match",28,4,4,1.57964619999984,0.466666666666667,0.25,0.15,0.25,2.31567949999589,1.65,"exp2",0,-0.1,0,0.6,1,0.6,-0.4,-0.4,0.1
"p301","up_down_width","initial",29,5,5,2.486512100033,0.9,0.4,0.25,0.4,2.44930390000809,4,"exp2",0,-0.15,0,0.625,2,1.25,-0.75,-0.375,0.15
"p301","up_down_width","match",30,4,4,3.09151040000143,0.6,0.55,0.45,0.3,2.19872970000142,2.35,"exp2",0,-0.1,0,0.818181818181818,2.2,1.8,-0.4,-0.181818181818182,0.1
"p301","up_down_width","initial",31,3,2,1.6402602000162,0.9,0.4,0.4,0.45,2.99709039996378,2.2,"exp2",-1,0,-0.333333333333333,1,1.2,0.8,-0.4,0,0
"p301","up_down_width","initial",32,4,3,1.41824989998713,0.9,0.25,0.2,0.45,3.66431389999343,2.95,"exp2",-1,-0.0499999999999999,-0.25,0.8,1,0.6,-0.4,-0.2,0.0499999999999999
"p301","up_down_width","initial",33,5,4,1.79947880003601,0.7,0.4,0.4,0.5,2.04655760002788,3.2,"exp2",-1,0,-0.2,1,2,1.6,-0.4,0,0
"p301","up_down_width","initial",34,3,2,1.63775610004086,0.9,0.55,0.45,0.55,1.74746990000131,2.35,"exp2",-1,-0.1,-0.333333333333333,0.818181818181818,1.65,0.9,-0.75,-0.181818181818182,0.1
"p301","up_down_width","initial",35,5,5,1.69501880003372,0.9,0.25,0.25,0.25,1.78614439995727,3.85,"exp2",0,0,0,1,1.25,1.25,0,0,0
"p301","up_down_width","initial",36,5,5,2.17965860001277,0.7,0.55,0.35,0.4,1.96378109999932,3.35,"exp2",0,-0.2,0,0.636363636363636,2.75,1.75,-1,-0.363636363636364,0.2
"p301","up_down_width","match",37,3,2,2.398306600051,1.4,0.25,0.2,0.55,2.65314260002924,3.05,"exp2",-1,-0.0499999999999999,-0.333333333333333,0.8,0.75,0.4,-0.35,-0.2,0.0499999999999999
"p301","up_down_width","match",38,5,4,3.33817859995179,0.675,0.4,0.35,0.55,1.97064120002324,3.1,"exp2",-1,-0.05,-0.2,0.875,2,1.4,-0.6,-0.125,0.05
"p301","up_down_width","match",39,4,3,2.38445549999597,0.733333333333333,0.25,0.2,0.25,1.45717629999854,2.45,"exp2",-1,-0.05,-0.25,0.8,1,0.6,-0.4,-0.2,0.05
"p301","up_down_width","initial",40,5,5,2.1791138999979,1.1,0.4,0.35,0.2,2.53919059998589,4.8,"exp2",0,-0.05,0,0.875,2,1.75,-0.25,-0.125,0.05
"p301","up_down_width","match",41,5,5,2.79932619997999,0.825,0.25,0.2,0.45,2.2696786999586,3.55,"exp2",0,-0.0499999999999999,0,0.8,1.25,1,-0.25,-0.2,0.0499999999999999
"p301","up_down_width","match",42,3,2,2.47392169997329,1.8,0.55,0.4,0.4,2.11769959999947,4.15,"exp2",-1,-0.15,-0.333333333333333,0.727272727272727,1.65,0.8,-0.85,-0.272727272727273,0.15
"p301","up_down_width","initial",43,5,5,1.59444120002445,1.1,0.25,0.2,0.2,2.98628790001385,4.65,"exp2",0,-0.05,0,0.8,1.25,1,-0.25,-0.2,0.05
"p301","up_down_width","match",44,4,3,1.94156930001918,0.783333333333333,0.25,0.2,0.55,3.95922659995267,2.6,"exp2",-1,-0.0499999999999999,-0.25,0.8,1,0.6,-0.4,-0.2,0.0499999999999999
"p301","up_down_width","initial",45,4,3,2.23491070000455,0.9,0.4,0.3,0.4,2.01595289999386,3.1,"exp2",-1,-0.1,-0.25,0.75,1.6,0.9,-0.7,-0.25,0.1
"p301","up_down_width","initial",46,5,5,2.44567230000393,0.7,0.25,0.15,0.4,2.90649660001509,3.05,"exp2",0,-0.0999999999999999,0,0.6,1.25,0.75,-0.5,-0.4,0.0999999999999999
"p301","up_down_width","match",47,3,2,1.61605740000959,1.8,0.4,0.25,0.25,3.19767989998218,4,"exp2",-1,-0.15,-0.333333333333333,0.625,1.2,0.5,-0.7,-0.375,0.15
"p301","up_down_width","match",48,3,2,1.3826362999971,1.8,0.25,0.2,0.3,1.71045340003911,3.85,"exp2",-1,-0.05,-0.333333333333333,0.8,0.75,0.4,-0.35,-0.2,0.05
"p301","up_down_width","match",49,4,2,2.28020839998499,0.733333333333333,0.55,0.4,0.45,1.8512470999849,2.75,"exp2",-2,-0.15,-0.5,0.727272727272727,2.2,0.8,-1.4,-0.272727272727273,0.15
"p301","up_down_width","match",50,3,2,1.49135799997021,1.4,0.55,0.45,0.5,1.36633749998873,3.35,"exp2",-1,-0.1,-0.333333333333333,0.818181818181818,1.65,0.9,-0.75,-0.181818181818182,0.1
"p301","up_down_width","initial",51,4,3,2.44911439996213,0.7,0.25,0.3,0.55,2.23830159998033,2.35,"exp2",-1,0.05,-0.25,1.2,1,0.9,-0.0999999999999999,0.2,0.05
"p301","up_down_width","match",52,3,2,1.43704299995443,1.475,0.25,0.25,0.4,2.25962840003194,3.2,"exp2",-1,5.55111512312578e-17,-0.333333333333333,1,0.75,0.5,-0.25,2.22044604925031e-16,5.55111512312578e-17
"p301","up_down_width","initial",1,5,5,2.10456210002303,0.9,0.4,0.3,0.3,1.7469504000037,4,"exp2",0,-0.1,0,0.75,2,1.5,-0.5,-0.25,0.1
"p301","up_down_width","initial",2,3,2,1.57370560005074,0.7,0.55,0.4,0.3,1.75088210002286,1.95,"exp2",-1,-0.15,-0.333333333333333,0.727272727272727,1.65,0.8,-0.85,-0.272727272727273,0.15
"p301","up_down_width","match",3,5,4,1.78599000000395,0.525,0.4,0.35,0.35,1.80953560001217,2.5,"exp2",-1,-0.05,-0.2,0.875,2,1.4,-0.6,-0.125,0.05
"p301","up_down_width","match",4,3,3,1.76630100002512,2.2,0.4,0.35,0.35,1.07042720000027,4.8,"exp2",0,-0.05,0,0.875,1.2,1.05,-0.15,-0.125,0.05
"p301","up_down_width","match",5,3,3,1.71648800000548,1.8,0.25,0.25,0.4,2.30264759995043,3.85,"exp2",0,5.55111512312578e-17,0,1,0.75,0.75,2.22044604925031e-16,2.22044604925031e-16,5.55111512312578e-17
"p301","up_down_width","initial",6,5,5,2.96540360001381,1.1,0.4,0.3,0.5,2.86178450001171,4.8,"exp2",0,-0.1,0,0.75,2,1.5,-0.5,-0.25,0.1
"p301","up_down_width","match",7,3,2,1.98932669998612,1.4,0.25,0.25,0.4,1.98842089995742,3.05,"exp2",-1,5.55111512312578e-17,-0.333333333333333,1,0.75,0.5,-0.25,2.22044604925031e-16,5.55111512312578e-17
"p301","up_down_width","match",8,5,5,2.55714930000249,0.825,0.55,0.4,0.35,1.52644600003259,3.85,"exp2",0,-0.15,0,0.727272727272727,2.75,2,-0.75,-0.272727272727273,0.15
"p301","up_down_width","initial",9,5,5,3.11487350001698,0.9,0.25,0.25,0.35,3.05322060000617,3.85,"exp2",0,0,0,1,1.25,1.25,0,0,0
"p301","up_down_width","initial",10,3,2,1.71812730003148,1.1,0.55,0.4,0.55,2.12781480001286,2.75,"exp2",-1,-0.15,-0.333333333333333,0.727272727272727,1.65,0.8,-0.85,-0.272727272727273,0.15
"p301","up_down_width","match",11,4,3,1.79918949998682,0.466666666666667,0.25,0.2,0.25,2.51116850000108,1.65,"exp2",-1,-0.05,-0.25,0.8,1,0.6,-0.4,-0.2,0.05
"p301","up_down_width","initial",12,5,3,1.58213799999794,0.9,0.55,0.4,0.25,2.26901599997655,4.15,"exp2",-2,-0.15,-0.4,0.727272727272727,2.75,1.2,-1.55,-0.272727272727273,0.15
"p301","up_down_width","initial",13,4,3,1.51580550003564,0.9,0.4,0.35,0.55,2.23830329999328,3.1,"exp2",-1,-0.05,-0.25,0.875,1.6,1.05,-0.55,-0.125,0.05
"p301","up_down_width","initial",14,4,3,1.53234159998829,1.1,0.55,0.45,0.2,2.41429590003099,3.85,"exp2",-1,-0.1,-0.25,0.818181818181818,2.2,1.35,-0.85,-0.181818181818182,0.1
"p301","up_down_width","match",15,4,3,1.70166249998147,0.6,0.4,0.3,0.55,3.072509599966,2.2,"exp2",-1,-0.1,-0.25,0.75,1.6,0.9,-0.7,-0.25,0.1
"p301","up_down_width","match",16,4,3,1.3279739000136,0.733333333333333,0.55,0.45,0.45,2.20090629998595,2.75,"exp2",-1,-0.1,-0.25,0.818181818181818,2.2,1.35,-0.85,-0.181818181818182,0.1
"p301","up_down_width","initial",17,3,2,1.57931870000903,0.7,0.25,0.2,0.35,1.88285289995838,1.65,"exp2",-1,-0.05,-0.333333333333333,0.8,0.75,0.4,-0.35,-0.2,0.05
"p301","up_down_width","initial",18,4,3,1.44239570002537,1.1,0.25,0.2,0.4,2.63261390000116,3.55,"exp2",-1,-0.0499999999999999,-0.25,0.8,1,0.6,-0.4,-0.2,0.0499999999999999
"p301","up_down_width","initial",19,3,2,1.20757139998022,0.9,0.55,0.4,0.35,1.4630733000231,2.35,"exp2",-1,-0.15,-0.333333333333333,0.727272727272727,1.65,0.8,-0.85,-0.272727272727273,0.15
"p301","up_down_width","match",20,4,4,1.9575248999754,0.783333333333333,0.25,0.2,0.4,2.10139590001199,2.6,"exp2",0,-0.0499999999999999,0,0.8,1,0.8,-0.2,-0.2,0.0499999999999999
"p301","up_down_width","initial",21,3,2,1.28503230004571,1.1,0.25,0.2,0.3,1.98437279998325,2.45,"exp2",-1,-0.05,-0.333333333333333,0.8,0.75,0.4,-0.35,-0.2,0.05
"p301","up_down_width","match",22,5,4,3.66298890003236,0.675,0.55,0.45,0.5,1.46766069997102,3.25,"exp2",-1,-0.1,-0.2,0.818181818181818,2.75,1.8,-0.95,-0.181818181818182,0.1
"p301","up_down_width","initial",23,5,5,1.21814060001634,0.7,0.4,0.25,0.25,1.5828910000273,3.2,"exp2",0,-0.15,0,0.625,2,1.25,-0.75,-0.375,0.15
"p301","up_down_width","match",24,5,5,1.47923440003069,0.675,0.4,0.25,0.4,2.26752759999363,3.1,"exp2",0,-0.15,0,0.625,2,1.25,-0.75,-0.375,0.15
"p301","up_down_width","initial",25,5,4,1.54373540001689,0.7,0.55,0.4,0.2,2.66620510001667,3.35,"exp2",-1,-0.15,-0.2,0.727272727272727,2.75,1.6,-1.15,-0.272727272727273,0.15
"p301","up_down_width","match",26,5,4,2.56259320001118,0.825,0.25,0.25,0.5,2.50724490004359,3.55,"exp2",-1,5.55111512312578e-17,-0.2,1,1.25,1,-0.25,2.22044604925031e-16,5.55111512312578e-17
"p301","up_down_width","match",27,5,5,2.37445449997904,0.675,0.25,0.15,0.55,3.35084299999289,2.95,"exp2",0,-0.0999999999999999,0,0.6,1.25,0.75,-0.5,-0.4,0.0999999999999999
"p301","up_down_width","match",28,3,3,1.80693369999062,1.8,0.4,0.25,0.55,3.4931721999892,4,"exp2",0,-0.15,0,0.625,1.2,0.75,-0.45,-0.375,0.15
"p301","up_down_width","initial",29,3,2,1.48404220002703,0.9,0.25,0.2,0.3,2.12787119997665,2.05,"exp2",-1,-0.05,-0.333333333333333,0.8,0.75,0.4,-0.35,-0.2,0.05
"p301","up_down_width","initial",30,3,2,1.35795549995964,0.7,0.4,0.35,0.35,1.51127110002562,1.8,"exp2",-1,-0.05,-0.333333333333333,0.875,1.2,0.7,-0.5,-0.125,0.05
"p301","up_down_width","initial",31,4,3,2.09938869997859,0.7,0.25,0.3,0.5,2.20604379998986,2.35,"exp2",-1,0.05,-0.25,1.2,1,0.9,-0.0999999999999999,0.2,0.05
"p301","up_down_width","initial",32,4,3,2.32765659998404,1.1,0.4,0.3,0.45,2.42591329995776,3.7,"exp2",-1,-0.1,-0.25,0.75,1.6,0.9,-0.7,-0.25,0.1
"p301","up_down_width","match",33,3,2,2.3085450999788,1.4,0.55,0.4,0.2,3.23946930002421,3.35,"exp2",-1,-0.15,-0.333333333333333,0.727272727272727,1.65,0.8,-0.85,-0.272727272727273,0.15
"p301","up_down_width","match",34,3,3,2.21054269996239,2.2,0.55,0.4,0.45,2.73037199996179,4.95,"exp2",0,-0.15,0,0.727272727272727,1.65,1.2,-0.45,-0.272727272727273,0.15
"p301","up_down_width","initial",35,3,2,1.60633119998965,0.9,0.4,0.45,0.55,1.50928830000339,2.2,"exp2",-1,0.05,-0.333333333333333,1.125,1.2,0.9,-0.3,0.125,0.05
"p301","up_down_width","match",36,3,2,1.54485179996118,1.8,0.55,0.5,0.35,2.21812019997742,4.15,"exp2",-1,-0.0500000000000001,-0.333333333333333,0.909090909090909,1.65,1,-0.65,-0.0909090909090911,0.0500000000000001
"p301","up_down_width","match",37,4,3,1.89032170001883,0.733333333333333,0.25,0.2,0.45,2.50128800002858,2.45,"exp2",-1,-0.0499999999999999,-0.25,0.8,1,0.6,-0.4,-0.2,0.0499999999999999
"p301","up_down_width","initial",38,5,4,1.56203390000155,1.1,0.55,0.45,0.4,1.80116550001549,4.95,"exp2",-1,-0.1,-0.2,0.818181818181818,2.75,1.8,-0.95,-0.181818181818182,0.1
"p301","up_down_width","initial",39,3,2,1.8445540999528,1.1,0.4,0.3,0.35,2.52183139999397,2.6,"exp2",-1,-0.1,-0.333333333333333,0.75,1.2,0.6,-0.6,-0.25,0.1
"p301","up_down_width","match",40,5,5,2.58216769999126,0.525,0.25,0.2,0.45,2.68577730003744,2.35,"exp2",0,-0.0499999999999999,0,0.8,1.25,1,-0.25,-0.2,0.0499999999999999
"p301","up_down_width","initial",41,4,3,2.12113500002306,0.9,0.25,0.25,0.45,1.98783090000506,2.95,"exp2",-1,5.55111512312578e-17,-0.25,1,1,0.75,-0.25,2.22044604925031e-16,5.55111512312578e-17
"p301","up_down_width","match",42,3,3,1.86842999997316,1.475,0.25,0.15,0.5,2.67314440000337,3.2,"exp2",0,-0.0999999999999999,0,0.6,0.75,0.45,-0.3,-0.4,0.0999999999999999
"p301","up_down_width","initial",43,5,5,1.31639480002923,1.1,0.25,0.1,0.25,1.82095269998536,4.65,"exp2",0,-0.15,0,0.4,1.25,0.5,-0.75,-0.6,0.15
"p301","up_down_width","initial",44,5,5,1.74927470000694,0.7,0.25,0.1,0.4,2.75041959999362,3.05,"exp2",0,-0.15,0,0.4,1.25,0.5,-0.75,-0.6,0.15
"p301","up_down_width","initial",45,4,5,1.39701810001861,0.7,0.4,0.3,0.2,1.91610089997994,2.5,"exp2",1,-0.1,0.25,0.75,1.6,1.5,-0.1,-0.25,0.1
"p301","up_down_width","match",46,4,4,1.88537319999887,0.466666666666667,0.4,0.3,0.3,1.58493760001147,1.8,"exp2",0,-0.1,0,0.75,1.6,1.2,-0.4,-0.25,0.1
"p301","up_down_width","initial",47,4,3,2.69128369999817,0.9,0.55,0.4,0.55,2.50288540002657,3.25,"exp2",-1,-0.15,-0.25,0.727272727272727,2.2,1.2,-1,-0.272727272727273,0.15
"p301","up_down_width","match",48,4,3,2.66741819999879,0.6,0.55,0.45,0.4,2.41628610005137,2.35,"exp2",-1,-0.1,-0.25,0.818181818181818,2.2,1.35,-0.85,-0.181818181818182,0.1
"p301","up_down_width","match",49,5,5,1.97444000001997,0.8625,0.25,0.2,0.45,2.77456779999193,3.7,"exp2",0,-0.0499999999999999,0,0.8,1.25,1,-0.25,-0.2,0.0499999999999999
"p301","up_down_width","match",50,3,3,2.44825530005619,2.2,0.25,0.2,0.45,2.02985759999137,4.65,"exp2",0,-0.0499999999999999,0,0.8,0.75,0.6,-0.15,-0.2,0.0499999999999999
"p301","up_down_width","initial",51,4,2,1.63735879998421,0.7,0.55,0.5,0.55,1.18610110000009,2.65,"exp2",-2,-0.05,-0.5,0.909090909090909,2.2,1,-1.2,-0.090909090909091,0.05
"p301","up_down_width","match",52,4,3,2.33001759997569,0.6,0.25,0.25,0.5,2.34820000000764,2.05,"exp2",-1,5.55111512312578e-17,-0.25,1,1,0.75,-0.25,2.22044604925031e-16,5.55111512312578e-17
"p301","up_down_width","initial",1,4,2,1.58598929998698,0.7,0.55,0.35,0.25,3.68101269996259,2.65,"exp2",-2,-0.2,-0.5,0.636363636363636,2.2,0.7,-1.5,-0.363636363636364,0.2
"p301","up_down_width","match",2,4,3,1.09945550002158,0.6,0.25,0.25,0.4,2.01417010003934,2.05,"exp2",-1,5.55111512312578e-17,-0.25,1,1,0.75,-0.25,2.22044604925031e-16,5.55111512312578e-17
"p301","up_down_width","initial",3,5,5,1.31884819996776,0.9,0.4,0.3,0.3,1.44156099995598,4,"exp2",0,-0.1,0,0.75,2,1.5,-0.5,-0.25,0.1
"p301","up_down_width","initial",4,5,5,2.47798590001184,0.7,0.55,0.35,0.2,1.94640280003659,3.35,"exp2",0,-0.2,0,0.636363636363636,2.75,1.75,-1,-0.363636363636364,0.2
"p301","up_down_width","match",5,5,5,1.38025389995892,0.825,0.55,0.35,0.25,2.09131930000149,3.85,"exp2",0,-0.2,0,0.636363636363636,2.75,1.75,-1,-0.363636363636364,0.2
"p301","up_down_width","initial",6,3,2,1.68046539998613,0.7,0.55,0.5,0.4,3.56586789997527,1.95,"exp2",-1,-0.05,-0.333333333333333,0.909090909090909,1.65,1,-0.65,-0.090909090909091,0.05
"p301","up_down_width","initial",7,4,3,2.03439510002499,0.7,0.25,0.2,0.55,2.89504159998614,2.35,"exp2",-1,-0.0499999999999999,-0.25,0.8,1,0.6,-0.4,-0.2,0.0499999999999999
"p301","up_down_width","match",8,5,5,2.18125640001381,0.525,0.4,0.25,0.2,1.70846420002636,2.5,"exp2",0,-0.15,0,0.625,2,1.25,-0.75,-0.375,0.15
"p301","up_down_width","initial",9,3,2,1.43468950001989,1.1,0.25,0.15,0.5,2.96128649997991,2.45,"exp2",-1,-0.0999999999999999,-0.333333333333333,0.6,0.75,0.3,-0.45,-0.4,0.0999999999999999
"p301","up_down_width","initial",10,3,2,1.23513340001227,1.1,0.4,0.3,0.2,2.27214030001778,2.6,"exp2",-1,-0.1,-0.333333333333333,0.75,1.2,0.6,-0.6,-0.25,0.1
"p301","up_down_width","match",11,3,3,1.29922290000832,1.8,0.4,0.3,0.25,2.15721699997084,4,"exp2",0,-0.1,0,0.75,1.2,0.9,-0.3,-0.25,0.1
"p301","up_down_width","initial",12,3,2,1.50357810000423,1.1,0.55,0.3,0.4,2.35243760002777,2.75,"exp2",-1,-0.25,-0.333333333333333,0.545454545454546,1.65,0.6,-1.05,-0.454545454545455,0.25
"p301","up_down_width","match",13,3,3,1.49243869999191,2.2,0.25,0.25,0.2,1.84661350003444,4.65,"exp2",0,0,0,1,0.75,0.75,0,0,0
"p301","up_down_width","initial",14,4,3,1.8606261999812,0.9,0.25,0.2,0.2,1.817400800006,2.95,"exp2",-1,-0.05,-0.25,0.8,1,0.6,-0.4,-0.2,0.05
"p301","up_down_width","initial",15,4,3,1.40668409998761,0.7,0.4,0.25,0.2,1.73230340000009,2.5,"exp2",-1,-0.15,-0.25,0.625,1.6,0.75,-0.85,-0.375,0.15
"p301","up_down_width","initial",16,5,5,1.45224030001555,0.9,0.55,0.4,0.2,2.22596079995856,4.15,"exp2",0,-0.15,0,0.727272727272727,2.75,2,-0.75,-0.272727272727273,0.15
"p301","up_down_width","initial",17,5,5,1.86193989997264,0.9,0.25,0.2,0.45,2.81043060001684,3.85,"exp2",0,-0.0499999999999999,0,0.8,1.25,1,-0.25,-0.2,0.0499999999999999
"p301","up_down_width","match",18,5,5,2.04436619998887,0.8625,0.25,0.2,0.3,1.62620589998551,3.7,"exp2",0,-0.05,0,0.8,1.25,1,-0.25,-0.2,0.05
"p301","up_down_width","match",19,5,5,1.69031229999382,0.675,0.25,0.2,0.45,2.05288289999589,2.95,"exp2",0,-0.0499999999999999,0,0.8,1.25,1,-0.25,-0.2,0.0499999999999999
"p301","up_down_width","match",20,4,4,1.88839099998586,0.466666666666667,0.4,0.2,0.35,2.77184870000929,1.8,"exp2",0,-0.2,0,0.5,1.6,0.8,-0.8,-0.5,0.2
"p301","up_down_width","match",21,4,4,2.04344620002666,0.466666666666667,0.25,0.2,0.55,2.58442289999221,1.65,"exp2",0,-0.0499999999999999,0,0.8,1,0.8,-0.2,-0.2,0.0499999999999999
"p301","up_down_width","initial",22,5,5,3.25955750001594,0.7,0.25,0.2,0.35,2.08679980004672,3.05,"exp2",0,-0.05,0,0.8,1.25,1,-0.25,-0.2,0.05
"p301","up_down_width","match",23,3,2,1.52736259996891,1.4,0.55,0.4,0.2,2.93596520001302,3.35,"exp2",-1,-0.15,-0.333333333333333,0.727272727272727,1.65,0.8,-0.85,-0.272727272727273,0.15
"p301","up_down_width","match",24,3,3,2.32466300000669,1.8,0.25,0.1,0.35,3.81426999997348,3.85,"exp2",0,-0.15,0,0.4,0.75,0.3,-0.45,-0.6,0.15
"p301","up_down_width","initial",25,5,3,2.55102260003332,1.1,0.55,0.5,0.25,2.959614899999,4.95,"exp2",-2,-0.0500000000000001,-0.4,0.909090909090909,2.75,1.5,-1.25,-0.0909090909090911,0.0500000000000001
"p301","up_down_width","initial",26,3,2,1.8462898999569,0.9,0.25,0.2,0.45,1.94724249996943,2.05,"exp2",-1,-0.0499999999999999,-0.333333333333333,0.8,0.75,0.4,-0.35,-0.2,0.0499999999999999
"p301","up_down_width","match",27,4,3,3.36486089997925,0.6,0.55,0.45,0.55,2.14161509997211,2.35,"exp2",-1,-0.1,-0.25,0.818181818181818,2.2,1.35,-0.85,-0.181818181818182,0.1
"p301","up_down_width","match",28,5,5,2.20115380000789,0.525,0.25,0.2,0.5,2.49559020000743,2.35,"exp2",0,-0.0499999999999999,0,0.8,1.25,1,-0.25,-0.2,0.0499999999999999
"p301","up_down_width","initial",29,5,5,1.88113380002324,0.7,0.4,0.35,0.4,1.37268490000861,3.2,"exp2",0,-0.05,0,0.875,2,1.75,-0.25,-0.125,0.05
"p301","up_down_width","initial",30,4,3,3.03107839997392,0.9,0.55,0.45,0.2,3.27640650002286,3.25,"exp2",-1,-0.1,-0.25,0.818181818181818,2.2,1.35,-0.85,-0.181818181818182,0.1
"p301","up_down_width","match",31,5,4,3.63527290005004,0.825,0.25,0.2,0.3,5.40828869998222,3.55,"exp2",-1,-0.05,-0.2,0.8,1.25,0.8,-0.45,-0.2,0.05
"p301","up_down_width","match",32,3,2,1.79193910001777,1.475,0.25,0.2,0.2,3.17625469999621,3.2,"exp2",-1,-0.05,-0.333333333333333,0.8,0.75,0.4,-0.35,-0.2,0.05
"p301","up_down_width","initial",33,3,2,1.20578680001199,0.7,0.25,0.2,0.45,1.78107409999939,1.65,"exp2",-1,-0.0499999999999999,-0.333333333333333,0.8,0.75,0.4,-0.35,-0.2,0.0499999999999999
"p301","up_down_width","initial",34,3,2,1.36594490002608,0.9,0.55,0.45,0.4,2.17586800002027,2.35,"exp2",-1,-0.1,-0.333333333333333,0.818181818181818,1.65,0.9,-0.75,-0.181818181818182,0.1
"p301","up_down_width","initial",35,4,3,1.70469129999401,1.1,0.55,0.4,0.35,1.63557829998899,3.85,"exp2",-1,-0.15,-0.25,0.727272727272727,2.2,1.2,-1,-0.272727272727273,0.15
"p301","up_down_width","match",36,4,3,2.1173505000188,0.733333333333333,0.25,0.25,0.5,2.17504070000723,2.45,"exp2",-1,5.55111512312578e-17,-0.25,1,1,0.75,-0.25,2.22044604925031e-16,5.55111512312578e-17
"p301","up_down_width","match",37,4,4,4.23513190000085,0.733333333333333,0.55,0.2,0.2,3.11995279998519,2.75,"exp2",0,-0.35,0,0.363636363636364,2.2,0.8,-1.4,-0.636363636363636,0.35
"p301","up_down_width","match",38,4,3,2.62102200003574,0.6,0.4,0.25,0.25,2.46602479997091,2.2,"exp2",-1,-0.15,-0.25,0.625,1.6,0.75,-0.85,-0.375,0.15
"p301","up_down_width","initial",39,3,2,0.866085900051985,0.9,0.4,0.35,0.45,2.49443250003969,2.2,"exp2",-1,-0.05,-0.333333333333333,0.875,1.2,0.7,-0.5,-0.125,0.05
"p301","up_down_width","match",40,3,3,1.09586949995719,2.2,0.55,0.4,0.55,1.70604949997505,4.95,"exp2",0,-0.15,0,0.727272727272727,1.65,1.2,-0.45,-0.272727272727273,0.15
"p301","up_down_width","match",41,5,4,2.20068830001401,0.675,0.55,0.35,0.2,2.54385339998407,3.25,"exp2",-1,-0.2,-0.2,0.636363636363636,2.75,1.4,-1.35,-0.363636363636364,0.2
"p301","up_down_width","initial",42,5,5,4.51949040003819,1.1,0.25,0.15,0.25,1.82516140001826,4.65,"exp2",0,-0.1,0,0.6,1.25,0.75,-0.5,-0.4,0.1
"p301","up_down_width","match",43,3,3,0.932631899951957,2.2,0.4,0.35,0.2,2.07965160004096,4.8,"exp2",0,-0.05,0,0.875,1.2,1.05,-0.15,-0.125,0.05
"p301","up_down_width","initial",44,4,3,1.30573409999488,1.1,0.25,0.15,0.25,4.81929709995165,3.55,"exp2",-1,-0.1,-0.25,0.6,1,0.45,-0.55,-0.4,0.1
"p301","up_down_width","match",45,3,3,2.45495280000614,1.4,0.25,0.15,0.35,1.89067570003681,3.05,"exp2",0,-0.1,0,0.6,0.75,0.45,-0.3,-0.4,0.1
"p301","up_down_width","initial",46,4,4,1.56768000003649,0.9,0.4,0.25,0.3,2.04762209998444,3.1,"exp2",0,-0.15,0,0.625,1.6,1,-0.6,-0.375,0.15
"p301","up_down_width","match",47,4,3,3.03511320002144,0.783333333333333,0.25,0.25,0.2,1.64938890002668,2.6,"exp2",-1,0,-0.25,1,1,0.75,-0.25,0,0
"p301","up_down_width","initial",48,4,3,0.735184999997728,1.1,0.4,0.25,0.5,2.08157239999855,3.7,"exp2",-1,-0.15,-0.25,0.625,1.6,0.75,-0.85,-0.375,0.15
"p301","up_down_width","initial",49,5,5,1.53489309997531,1.1,0.4,0.2,0.55,3.50496819999535,4.8,"exp2",0,-0.2,0,0.5,2,1,-1,-0.5,0.2
"p301","up_down_width","match",50,3,3,1.17570240003988,1.8,0.55,0.35,0.35,2.37593460001517,4.15,"exp2",0,-0.2,0,0.636363636363636,1.65,1.05,-0.6,-0.363636363636364,0.2
"p301","up_down_width","match",51,5,5,3.61732219997793,0.675,0.4,0.25,0.45,2.60807239997666,3.1,"exp2",0,-0.15,0,0.625,2,1.25,-0.75,-0.375,0.15
"p301","up_down_width","initial",52,3,3,1.4663634999888,0.7,0.4,0.25,0.45,2.65388260001782,1.8,"exp2",0,-0.15,0,0.625,1.2,0.75,-0.45,-0.375,0.15
"p301","up_down_width","initial",1,3,2,1.60072579997359,0.9,0.55,0.35,0.2,2.3995758999954,2.35,"exp2",-1,-0.2,-0.333333333333333,0.636363636363636,1.65,0.7,-0.95,-0.363636363636364,0.2
"p301","up_down_width","match",2,3,2,0.982321300019976,1.8,0.55,0.4,0.45,3.72575659997528,4.15,"exp2",-1,-0.15,-0.333333333333333,0.727272727272727,1.65,0.8,-0.85,-0.272727272727273,0.15
"p301","up_down_width","initial",3,5,5,2.0267021000036,0.7,0.25,0.2,0.45,2.50511430000188,3.05,"exp2",0,-0.0499999999999999,0,0.8,1.25,1,-0.25,-0.2,0.0499999999999999
"p301","up_down_width","initial",4,4,4,2.22860770003172,1.1,0.55,0.35,0.25,3.08272950001992,3.85,"exp2",0,-0.2,0,0.636363636363636,2.2,1.4,-0.8,-0.363636363636364,0.2
"p301","up_down_width","match",5,5,4,1.67705920001026,0.525,0.4,0.3,0.3,1.7679582000128,2.5,"exp2",-1,-0.1,-0.2,0.75,2,1.2,-0.8,-0.25,0.1
"p301","up_down_width","initial",6,4,4,1.91360860003624,1.1,0.4,0.35,0.45,2.33238009997876,3.7,"exp2",0,-0.05,0,0.875,1.6,1.4,-0.2,-0.125,0.05
"p301","up_down_width","initial",7,3,2,1.9843406000291,1.1,0.4,0.35,0.2,2.23894529999234,2.6,"exp2",-1,-0.05,-0.333333333333333,0.875,1.2,0.7,-0.5,-0.125,0.05
"p301","up_down_width","initial",8,5,5,2.05662920000032,0.7,0.4,0.25,0.2,1.71825030003674,3.2,"exp2",0,-0.15,0,0.625,2,1.25,-0.75,-0.375,0.15
"p301","up_down_width","match",9,5,5,1.68215069995495,0.525,0.25,0.2,0.3,2.78179549996275,2.35,"exp2",0,-0.05,0,0.8,1.25,1,-0.25,-0.2,0.05
"p301","up_down_width","match",10,3,3,1.96397700003581,2.2,0.4,0.3,0.5,2.02802520000841,4.8,"exp2",0,-0.1,0,0.75,1.2,0.9,-0.3,-0.25,0.1
"p301","up_down_width","initial",11,3,2,1.69929670001147,1.1,0.25,0.2,0.45,2.95926150004379,2.45,"exp2",-1,-0.0499999999999999,-0.333333333333333,0.8,0.75,0.4,-0.35,-0.2,0.0499999999999999
"p301","up_down_width","initial",12,3,2,1.52244349999819,0.7,0.55,0.35,0.4,1.60321909998311,1.95,"exp2",-1,-0.2,-0.333333333333333,0.636363636363636,1.65,0.7,-0.95,-0.363636363636364,0.2
"p301","up_down_width","match",13,5,3,1.60682620003354,0.675,0.55,0.5,0.55,1.90934079996077,3.25,"exp2",-2,-0.05,-0.4,0.909090909090909,2.75,1.5,-1.25,-0.090909090909091,0.05
"p301","up_down_width","match",14,4,3,7.11411640001461,0.733333333333333,0.25,0.25,0.35,1.61318009998649,2.45,"exp2",-1,0,-0.25,1,1,0.75,-0.25,0,0
"p301","up_down_width","match",15,4,3,2.61775089998264,0.6,0.25,0.2,0.3,2.11046050000004,2.05,"exp2",-1,-0.05,-0.25,0.8,1,0.6,-0.4,-0.2,0.05
"p301","up_down_width","initial",16,4,3,1.91269109997666,0.9,0.25,0.2,0.55,2.50663830002304,2.95,"exp2",-1,-0.0499999999999999,-0.25,0.8,1,0.6,-0.4,-0.2,0.0499999999999999
"p301","up_down_width","match",17,3,2,2.1440543999779,1.4,0.55,0.45,0.4,1.86548770003719,3.35,"exp2",-1,-0.1,-0.333333333333333,0.818181818181818,1.65,0.9,-0.75,-0.181818181818182,0.1
"p301","up_down_width","match",18,4,3,1.52164290001383,0.783333333333333,0.25,0.25,0.5,2.38837629999034,2.6,"exp2",-1,5.55111512312578e-17,-0.25,1,1,0.75,-0.25,2.22044604925031e-16,5.55111512312578e-17
"p301","up_down_width","match",19,5,4,1.96435919997748,0.825,0.25,0.25,0.45,1.93284389999462,3.55,"exp2",-1,5.55111512312578e-17,-0.2,1,1.25,1,-0.25,2.22044604925031e-16,5.55111512312578e-17
"p301","up_down_width","initial",20,5,4,1.61401600000681,0.7,0.55,0.4,0.25,2.58792900003027,3.35,"exp2",-1,-0.15,-0.2,0.727272727272727,2.75,1.6,-1.15,-0.272727272727273,0.15
"p301","up_down_width","match",21,3,3,1.99193620000733,2.2,0.25,0.2,0.3,2.99783489998663,4.65,"exp2",0,-0.05,0,0.8,0.75,0.6,-0.15,-0.2,0.05
"p301","up_down_width","initial",22,5,4,1.83258410001872,1.1,0.25,0.2,0.2,1.29467289999593,4.65,"exp2",-1,-0.05,-0.2,0.8,1.25,0.8,-0.45,-0.2,0.05
"p301","up_down_width","initial",23,4,3,1.33162800001446,0.9,0.4,0.35,0.55,1.8366534000379,3.1,"exp2",-1,-0.05,-0.25,0.875,1.6,1.05,-0.55,-0.125,0.05
"p301","up_down_width","match",24,4,3,1.91998260002583,0.466666666666667,0.4,0.3,0.4,2.25913129997207,1.8,"exp2",-1,-0.1,-0.25,0.75,1.6,0.9,-0.7,-0.25,0.1
"p301","up_down_width","initial",25,5,4,2.09730169997783,1.1,0.55,0.4,0.25,2.33262350002769,4.95,"exp2",-1,-0.15,-0.2,0.727272727272727,2.75,1.6,-1.15,-0.272727272727273,0.15
"p301","up_down_width","match",26,4,4,3.1687659000163,0.6,0.55,0.45,0.2,4.19289050000953,2.35,"exp2",0,-0.1,0,0.818181818181818,2.2,1.8,-0.4,-0.181818181818182,0.1
"p301","up_down_width","initial",27,5,5,1.83981909998693,0.9,0.4,0.35,0.4,3.31829679996008,4,"exp2",0,-0.05,0,0.875,2,1.75,-0.25,-0.125,0.05
"p301","up_down_width","match",28,4,4,4.70792390004499,0.733333333333333,0.55,0.4,0.2,3.58941649994813,2.75,"exp2",0,-0.15,0,0.727272727272727,2.2,1.6,-0.6,-0.272727272727273,0.15
"p301","up_down_width","initial",29,4,3,1.73542889999226,0.7,0.55,0.45,0.25,2.38435850001406,2.65,"exp2",-1,-0.1,-0.25,0.818181818181818,2.2,1.35,-0.85,-0.181818181818182,0.1
"p301","up_down_width","initial",30,3,2,2.02002090000315,0.9,0.25,0.2,0.35,2.08236220001709,2.05,"exp2",-1,-0.05,-0.333333333333333,0.8,0.75,0.4,-0.35,-0.2,0.05
"p301","up_down_width","match",31,4,3,1.88461710000411,0.6,0.4,0.35,0.35,1.88771270000143,2.2,"exp2",-1,-0.05,-0.25,0.875,1.6,1.05,-0.55,-0.125,0.05
"p301","up_down_width","match",32,3,2,1.71379379997961,1.4,0.25,0.2,0.5,2.68425389996264,3.05,"exp2",-1,-0.0499999999999999,-0.333333333333333,0.8,0.75,0.4,-0.35,-0.2,0.0499999999999999
"p301","up_down_width","match",33,5,4,2.05850380001357,0.8625,0.25,0.15,0.45,2.39141480001854,3.7,"exp2",-1,-0.0999999999999999,-0.2,0.6,1.25,0.6,-0.65,-0.4,0.0999999999999999
"p301","up_down_width","match",34,5,5,2.93303529999685,0.675,0.4,0.3,0.25,1.77488539996557,3.1,"exp2",0,-0.1,0,0.75,2,1.5,-0.5,-0.25,0.1
"p301","up_down_width","initial",35,3,2,1.92731339996681,0.9,0.4,0.3,0.2,2.20246499998029,2.2,"exp2",-1,-0.1,-0.333333333333333,0.75,1.2,0.6,-0.6,-0.25,0.1
"p301","up_down_width","initial",36,3,2,2.26596310001332,0.7,0.25,0.25,0.35,2.51104050001595,1.65,"exp2",-1,0,-0.333333333333333,1,0.75,0.5,-0.25,0,0
"p301","up_down_width","initial",37,4,4,3.41184610000346,0.7,0.4,0.3,0.2,2.65085090004141,2.5,"exp2",0,-0.1,0,0.75,1.6,1.2,-0.4,-0.25,0.1
"p301","up_down_width","match",38,5,4,3.42818599997554,0.675,0.25,0.2,0.55,2.79455200000666,2.95,"exp2",-1,-0.0499999999999999,-0.2,0.8,1.25,0.8,-0.45,-0.2,0.0499999999999999
"p301","up_down_width","initial",39,5,4,2.25281790003646,1.1,0.4,0.35,0.3,1.90670499997213,4.8,"exp2",-1,-0.05,-0.2,0.875,2,1.4,-0.6,-0.125,0.05
"p301","up_down_width","initial",40,5,5,2.71589770005085,0.9,0.55,0.4,0.55,2.52791610005079,4.15,"exp2",0,-0.15,0,0.727272727272727,2.75,2,-0.75,-0.272727272727273,0.15
"p301","up_down_width","initial",41,4,3,1.96965980000095,0.7,0.25,0.2,0.45,2.54575069999555,2.35,"exp2",-1,-0.0499999999999999,-0.25,0.8,1,0.6,-0.4,-0.2,0.0499999999999999
"p301","up_down_width","match",42,3,3,2.0126913000131,1.8,0.25,0.2,0.55,2.04405239998596,3.85,"exp2",0,-0.0499999999999999,0,0.8,0.75,0.6,-0.15,-0.2,0.0499999999999999
"p301","up_down_width","match",43,5,4,1.6452174000442,0.825,0.55,0.5,0.45,1.43417610001052,3.85,"exp2",-1,-0.05,-0.2,0.909090909090909,2.75,2,-0.75,-0.090909090909091,0.05
"p301","up_down_width","match",44,3,3,2.01927380001871,2.2,0.55,0.5,0.5,1.23415850003948,4.95,"exp2",0,-0.05,0,0.909090909090909,1.65,1.5,-0.15,-0.090909090909091,0.05
"p301","up_down_width","match",45,4,3,1.55330049997428,0.466666666666667,0.25,0.2,0.5,2.69077639997704,1.65,"exp2",-1,-0.0499999999999999,-0.25,0.8,1,0.6,-0.4,-0.2,0.0499999999999999
"p301","up_down_width","match",46,3,3,1.60868720000144,1.8,0.4,0.35,0.35,1.33439879998332,4,"exp2",0,-0.05,0,0.875,1.2,1.05,-0.15,-0.125,0.05
"p301","up_down_width","initial",47,4,4,1.80266149999807,1.1,0.25,0.2,0.45,2.89719759998843,3.55,"exp2",0,-0.0499999999999999,0,0.8,1,0.8,-0.2,-0.2,0.0499999999999999
"p301","up_down_width","initial",48,5,5,2.0099575999775,0.9,0.25,0.1,0.25,1.96118700003717,3.85,"exp2",0,-0.15,0,0.4,1.25,0.5,-0.75,-0.6,0.15
"p301","up_down_width","initial",49,4,3,1.82186800002819,0.9,0.55,0.5,0.55,1.58722679998027,3.25,"exp2",-1,-0.05,-0.25,0.909090909090909,2.2,1.5,-0.7,-0.090909090909091,0.05
"p301","up_down_width","initial",50,3,2,1.35529910004698,1.1,0.55,0.5,0.55,1.60358070000075,2.75,"exp2",-1,-0.05,-0.333333333333333,0.909090909090909,1.65,1,-0.65,-0.090909090909091,0.05
"p301","up_down_width","initial",51,3,2,1.55210080003599,0.7,0.4,0.4,0.2,2.43285340000875,1.8,"exp2",-1,-5.55111512312578e-17,-0.333333333333333,1,1.2,0.8,-0.4,-1.38777878078145e-16,5.55111512312578e-17
"p301","up_down_width","match",52,3,2,1.31407399999443,1.475,0.25,0.2,0.3,1.37180620001163,3.2,"exp2",-1,-0.05,-0.333333333333333,0.8,0.75,0.4,-0.35,-0.2,0.05
"p301","up_down_width","match",1,4,3,2.30589770001825,0.733333333333333,0.25,0.3,0.5,11.0761675999966,2.45,"exp2",-1,0.05,-0.25,1.2,1,0.9,-0.0999999999999999,0.2,0.05
"p301","up_down_width","match",2,4,3,1.19446919998154,0.466666666666667,0.4,0.35,0.3,2.10540329996729,1.8,"exp2",-1,-0.05,-0.25,0.875,1.6,1.05,-0.55,-0.125,0.05
"p301","up_down_width","match",3,3,3,1.53224490000866,1.8,0.4,0.25,0.35,2.1582435000455,4,"exp2",0,-0.15,0,0.625,1.2,0.75,-0.45,-0.375,0.15
"p301","up_down_width","initial",4,3,2,1.27327540004626,0.7,0.25,0.25,0.25,1.06048649997683,1.65,"exp2",-1,0,-0.333333333333333,1,0.75,0.5,-0.25,0,0
"p301","up_down_width","initial",5,3,2,1.22333060001256,0.9,0.4,0.35,0.25,1.87776160001522,2.2,"exp2",-1,-0.05,-0.333333333333333,0.875,1.2,0.7,-0.5,-0.125,0.05
"p301","up_down_width","match",6,4,3,1.65528240002459,0.6,0.25,0.2,0.35,1.36416979995556,2.05,"exp2",-1,-0.05,-0.25,0.8,1,0.6,-0.4,-0.2,0.05
"p301","up_down_width","initial",7,5,5,1.43059970001923,0.7,0.25,0.15,0.55,3.14943940000376,3.05,"exp2",0,-0.0999999999999999,0,0.6,1.25,0.75,-0.5,-0.4,0.0999999999999999
"p301","up_down_width","initial",8,4,4,1.74668630002998,0.9,0.25,0.2,0.45,2.10779490001732,2.95,"exp2",0,-0.0499999999999999,0,0.8,1,0.8,-0.2,-0.2,0.0499999999999999
"p301","up_down_width","initial",9,4,4,1.62619340000674,1.1,0.55,0.4,0.25,1.81612159998622,3.85,"exp2",0,-0.15,0,0.727272727272727,2.2,1.6,-0.6,-0.272727272727273,0.15
"p301","up_down_width","initial",10,5,5,1.34603339998284,1.1,0.4,0.35,0.5,1.30804879998323,4.8,"exp2",0,-0.05,0,0.875,2,1.75,-0.25,-0.125,0.05
"p301","up_down_width","initial",11,5,4,2.09453780000331,0.7,0.55,0.45,0.3,2.45848390000174,3.35,"exp2",-1,-0.1,-0.2,0.818181818181818,2.75,1.8,-0.95,-0.181818181818182,0.1
"p301","up_down_width","initial",12,4,4,4.0680180999916,0.9,0.55,0.4,0.45,1.39203580003232,3.25,"exp2",0,-0.15,0,0.727272727272727,2.2,1.6,-0.6,-0.272727272727273,0.15
"p301","up_down_width","initial",13,5,5,2.06593649997376,0.9,0.25,0.15,0.5,2.55922320001991,3.85,"exp2",0,-0.0999999999999999,0,0.6,1.25,0.75,-0.5,-0.4,0.0999999999999999
"p301","up_down_width","match",14,5,5,1.7594734999584,0.675,0.4,0.3,0.3,1.60732160002226,3.1,"exp2",0,-0.1,0,0.75,2,1.5,-0.5,-0.25,0.1
"p301","up_down_width","initial",15,3,2,4.30455920001259,1.1,0.4,0.35,0.5,1.84314519999316,2.6,"exp2",-1,-0.05,-0.333333333333333,0.875,1.2,0.7,-0.5,-0.125,0.05
"p301","up_down_width","match",16,5,5,1.84042840002803,0.675,0.25,0.2,0.45,2.50147509999806,2.95,"exp2",0,-0.0499999999999999,0,0.8,1.25,1,-0.25,-0.2,0.0499999999999999
"p301","up_down_width","match",17,5,5,1.64179050002713,0.825,0.55,0.5,0.3,2.51809050003067,3.85,"exp2",0,-0.0500000000000001,0,0.909090909090909,2.75,2.5,-0.25,-0.0909090909090911,0.0500000000000001
"p301","up_down_width","initial",18,4,3,1.93512520001968,1.1,0.25,0.2,0.5,2.04933410004014,3.55,"exp2",-1,-0.0499999999999999,-0.25,0.8,1,0.6,-0.4,-0.2,0.0499999999999999
"p301","up_down_width","match",19,4,3,2.5985309999669,0.733333333333333,0.55,0.4,0.35,1.30912410002202,2.75,"exp2",-1,-0.15,-0.25,0.727272727272727,2.2,1.2,-1,-0.272727272727273,0.15
"p301","up_down_width","match",20,3,2,1.45787079998991,1.4,0.25,0.15,0.25,1.54241549997823,3.05,"exp2",-1,-0.1,-0.333333333333333,0.6,0.75,0.3,-0.45,-0.4,0.1
"p301","up_down_width","initial",21,5,5,1.5744621999911,1.1,0.55,0.45,0.45,1.60534389998065,4.95,"exp2",0,-0.1,0,0.818181818181818,2.75,2.25,-0.5,-0.181818181818182,0.1
"p301","up_down_width","initial",22,3,2,1.73406599997543,0.7,0.55,0.45,0.35,1.51950300001772,1.95,"exp2",-1,-0.1,-0.333333333333333,0.818181818181818,1.65,0.9,-0.75,-0.181818181818182,0.1
"p301","up_down_width","initial",23,5,5,1.15725039999234,0.9,0.4,0.45,0.45,1.46326970000518,4,"exp2",0,0.05,0,1.125,2,2.25,0.25,0.125,0.05
"p301","up_down_width","initial",24,5,5,1.16589679999743,0.9,0.55,0.55,0.45,1.90106209996156,4.15,"exp2",0,0,0,1,2.75,2.75,0,0,0
"p301","up_down_width","initial",25,4,4,2.31948279996868,0.7,0.4,0.35,0.55,2.00115319999168,2.5,"exp2",0,-0.05,0,0.875,1.6,1.4,-0.2,-0.125,0.05
"p301","up_down_width","match",26,4,3,1.43875719996868,0.6,0.4,0.15,0.5,2.83638970000902,2.2,"exp2",-1,-0.25,-0.25,0.375,1.6,0.45,-1.15,-0.625,0.25
"p301","up_down_width","match",27,3,3,1.9394124999526,2.2,0.55,0.45,0.2,3.02905910002301,4.95,"exp2",0,-0.1,0,0.818181818181818,1.65,1.35,-0.3,-0.181818181818182,0.1
"p301","up_down_width","initial",28,3,2,4.48959150002338,1.1,0.25,0.25,0.25,2.06787009997061,2.45,"exp2",-1,0,-0.333333333333333,1,0.75,0.5,-0.25,0,0
"p301","up_down_width","match",29,5,4,2.13934769999469,0.825,0.25,0.25,0.2,1.90829470002791,3.55,"exp2",-1,0,-0.2,1,1.25,1,-0.25,0,0
"p301","up_down_width","initial",30,5,5,2.07271229999606,1.1,0.25,0.2,0.5,3.23605990002397,4.65,"exp2",0,-0.0499999999999999,0,0.8,1.25,1,-0.25,-0.2,0.0499999999999999
"p301","up_down_width","match",31,5,4,1.87662880000426,0.675,0.55,0.45,0.4,1.59289450000506,3.25,"exp2",-1,-0.1,-0.2,0.818181818181818,2.75,1.8,-0.95,-0.181818181818182,0.1
"p301","up_down_width","match",32,3,4,1.88064040004974,1.8,0.25,0.2,0.5,2.20452590001514,3.85,"exp2",1,-0.0499999999999999,0.333333333333333,0.8,0.75,0.8,0.0500000000000003,-0.2,0.0499999999999999
"p301","up_down_width","match",33,4,3,1.59055319998879,0.783333333333333,0.25,0.15,0.3,1.39776170003461,2.6,"exp2",-1,-0.1,-0.25,0.6,1,0.45,-0.55,-0.4,0.1
"p301","up_down_width","match",34,3,3,1.1361039999756,1.475,0.25,0.2,0.5,2.22669869998936,3.2,"exp2",0,-0.0499999999999999,0,0.8,0.75,0.6,-0.15,-0.2,0.0499999999999999
"p301","up_down_width","match",35,3,2,1.26547379995463,1.4,0.55,0.45,0.25,1.83897169999545,3.35,"exp2",-1,-0.1,-0.333333333333333,0.818181818181818,1.65,0.9,-0.75,-0.181818181818182,0.1
"p301","up_down_width","match",36,3,3,1.25591649999842,2.2,0.4,0.4,0.2,2.05248320003739,4.8,"exp2",0,-5.55111512312578e-17,0,1,1.2,1.2,-2.22044604925031e-16,-1.38777878078145e-16,5.55111512312578e-17
"p301","up_down_width","initial",37,4,3,1.57871390000219,0.7,0.55,0.5,0.35,1.3225972999935,2.65,"exp2",-1,-0.0500000000000001,-0.25,0.909090909090909,2.2,1.5,-0.7,-0.0909090909090911,0.0500000000000001
"p301","up_down_width","initial",38,4,3,1.59772089996841,0.9,0.4,0.45,0.3,1.43629790004343,3.1,"exp2",-1,0.0499999999999999,-0.25,1.125,1.6,1.35,-0.25,0.125,0.0499999999999999
"p301","up_down_width","initial",39,3,2,1.38000639999518,1.1,0.55,0.55,0.5,1.61213549994864,2.75,"exp2",-1,0,-0.333333333333333,1,1.65,1.1,-0.55,0,0
"p301","up_down_width","match",40,4,2,1.44522100000177,0.6,0.55,0.65,0.5,2.57008549995953,2.35,"exp2",-2,0.1,-0.5,1.18181818181818,2.2,1.3,-0.9,0.181818181818182,0.1
"p301","up_down_width","initial",41,3,2,1.18439849995775,0.9,0.25,0.15,0.3,1.3435288000037,2.05,"exp2",-1,-0.1,-0.333333333333333,0.6,0.75,0.3,-0.45,-0.4,0.1
"p301","up_down_width","match",42,5,5,2.01316989999032,0.8625,0.25,0.15,0.35,1.75597360002575,3.7,"exp2",0,-0.1,0,0.6,1.25,0.75,-0.5,-0.4,0.1
"p301","up_down_width","match",43,5,5,2.0822535000043,0.525,0.25,0.15,0.5,2.63813680002932,2.35,"exp2",0,-0.0999999999999999,0,0.6,1.25,0.75,-0.5,-0.4,0.0999999999999999
"p301","up_down_width","initial",44,5,5,1.79756510001607,0.7,0.4,0.25,0.35,2.15668810001807,3.2,"exp2",0,-0.15,0,0.625,2,1.25,-0.75,-0.375,0.15
"p301","up_down_width","initial",45,4,5,2.49538400000893,1.1,0.4,0.35,0.55,1.70662569999695,3.7,"exp2",1,-0.05,0.25,0.875,1.6,1.75,0.15,-0.125,0.05
"p301","up_down_width","initial",46,3,2,2.01965769997332,0.9,0.55,0.35,0.2,2.35344640002586,2.35,"exp2",-1,-0.2,-0.333333333333333,0.636363636363636,1.65,0.7,-0.95,-0.363636363636364,0.2
"p301","up_down_width","match",47,3,4,1.68553519999841,2.2,0.25,0.25,0.55,2.38617380004143,4.65,"exp2",1,5.55111512312578e-17,0.333333333333333,1,0.75,1,0.25,2.22044604925031e-16,5.55111512312578e-17
"p301","up_down_width","initial",48,3,2,1.81347549997736,0.7,0.4,0.35,0.2,2.09143229998881,1.8,"exp2",-1,-0.05,-0.333333333333333,0.875,1.2,0.7,-0.5,-0.125,0.05
"p301","up_down_width","match",49,3,3,1.50294079998275,1.8,0.55,0.45,0.45,1.74472349998541,4.15,"exp2",0,-0.1,0,0.818181818181818,1.65,1.35,-0.3,-0.181818181818182,0.1
"p301","up_down_width","match",50,5,4,1.37512370001059,0.525,0.4,0.3,0.5,2.40602669998771,2.5,"exp2",-1,-0.1,-0.2,0.75,2,1.2,-0.8,-0.25,0.1
"p301","up_down_width","initial",51,4,4,1.81156060000649,0.7,0.25,0.2,0.25,1.78619590000017,2.35,"exp2",0,-0.05,0,0.8,1,0.8,-0.2,-0.2,0.05
"p301","up_down_width","match",52,4,3,1.61067269998603,0.466666666666667,0.25,0.15,0.25,1.37011379998876,1.65,"exp2",-1,-0.1,-0.25,0.6,1,0.45,-0.55,-0.4,0.1
"p301","up_down_width","match",1,4,3,1.38415569998324,0.733333333333333,0.25,0.2,0.45,1.85539590002736,2.45,"exp2",-1,-0.0499999999999999,-0.25,0.8,1,0.6,-0.4,-0.2,0.0499999999999999
"p301","up_down_width","match",2,4,4,1.2346821000101,0.6,0.4,0.25,0.2,1.48860529996455,2.2,"exp2",0,-0.15,0,0.625,1.6,1,-0.6,-0.375,0.15
"p301","up_down_width","initial",3,4,5,1.58953890000703,0.9,0.4,0.35,0.55,1.50918509997427,3.1,"exp2",1,-0.05,0.25,0.875,1.6,1.75,0.15,-0.125,0.05
"p301","up_down_width","initial",4,5,5,1.82583659997908,0.7,0.25,0.2,0.3,1.9439740999951,3.05,"exp2",0,-0.05,0,0.8,1.25,1,-0.25,-0.2,0.05
"p301","up_down_width","match",5,5,5,1.21206799999345,0.825,0.55,0.35,0.4,1.96324569999706,3.85,"exp2",0,-0.2,0,0.636363636363636,2.75,1.75,-1,-0.363636363636364,0.2
"p301","up_down_width","initial",6,3,2,1.36329480004497,0.9,0.4,0.4,0.2,2.50807959999656,2.2,"exp2",-1,-5.55111512312578e-17,-0.333333333333333,1,1.2,0.8,-0.4,-1.38777878078145e-16,5.55111512312578e-17
"p301","up_down_width","match",7,5,5,1.44560729997465,0.525,0.4,0.35,0.2,2.25112129998161,2.5,"exp2",0,-0.05,0,0.875,2,1.75,-0.25,-0.125,0.05
"p301","up_down_width","match",8,5,5,1.4377075000084,0.675,0.55,0.4,0.2,2.93120769999223,3.25,"exp2",0,-0.15,0,0.727272727272727,2.75,2,-0.75,-0.272727272727273,0.15
"p301","up_down_width","initial",9,3,2,1.48204079997959,0.7,0.4,0.4,0.5,1.66269129997818,1.8,"exp2",-1,0,-0.333333333333333,1,1.2,0.8,-0.4,0,0
"p301","up_down_width","match",10,3,3,1.31829009996727,1.8,0.55,0.45,0.5,1.47167409997201,4.15,"exp2",0,-0.1,0,0.818181818181818,1.65,1.35,-0.3,-0.181818181818182,0.1
"p301","up_down_width","initial",11,4,3,1.46130170003744,1.1,0.55,0.5,0.35,1.8499865999911,3.85,"exp2",-1,-0.0500000000000001,-0.25,0.909090909090909,2.2,1.5,-0.7,-0.0909090909090911,0.0500000000000001
"p301","up_down_width","initial",12,3,2,1.27193619997706,1.1,0.25,0.1,0.4,2.59579880000092,2.45,"exp2",-1,-0.15,-0.333333333333333,0.4,0.75,0.2,-0.55,-0.6,0.15
"p301","up_down_width","match",13,3,3,1.30472049996024,1.475,0.25,0.1,0.3,1.69894460000796,3.2,"exp2",0,-0.15,0,0.4,0.75,0.3,-0.45,-0.6,0.15
"p301","up_down_width","initial",14,5,5,1.79199060000246,1.1,0.4,0.25,0.55,2.11955360003049,4.8,"exp2",0,-0.15,0,0.625,2,1.25,-0.75,-0.375,0.15
"p301","up_down_width","match",15,5,5,1.36027310002828,0.825,0.25,0.1,0.2,1.19253330002539,3.55,"exp2",0,-0.15,0,0.4,1.25,0.5,-0.75,-0.6,0.15
"p301","up_down_width","initial",16,4,4,1.21545000001788,0.9,0.25,0.1,0.3,1.4392050000024,2.95,"exp2",0,-0.15,0,0.4,1,0.4,-0.6,-0.6,0.15
"p301","up_down_width","match",17,4,4,1.96586970001226,0.783333333333333,0.25,0.1,0.55,3.48587569996016,2.6,"exp2",0,-0.15,0,0.4,1,0.4,-0.6,-0.6,0.15
"p301","up_down_width","initial",18,4,4,3.11039659997914,0.9,0.55,0.55,0.55,1.5606703000376,3.25,"exp2",0,0,0,1,2.2,2.2,0,0,0
"p301","up_down_width","initial",19,4,4,3.71021430002293,0.7,0.25,0.1,0.2,1.41591179999523,2.35,"exp2",0,-0.15,0,0.4,1,0.4,-0.6,-0.6,0.15
"p301","up_down_width","match",20,4,3,2.23656419996405,0.466666666666667,0.25,0.1,0.2,1.23451249999925,1.65,"exp2",-1,-0.15,-0.25,0.4,1,0.3,-0.7,-0.6,0.15
"p301","up_down_width","initial",21,3,2,1.44361469999421,0.7,0.25,0.15,0.5,1.81602850003401,1.65,"exp2",-1,-0.0999999999999999,-0.333333333333333,0.6,0.75,0.3,-0.45,-0.4,0.0999999999999999
"p301","up_down_width","initial",22,5,5,1.82186779996846,0.9,0.25,0.2,0.5,2.13065880001523,3.85,"exp2",0,-0.0499999999999999,0,0.8,1.25,1,-0.25,-0.2,0.0499999999999999
"p301","up_down_width","initial",23,5,5,1.46400969999377,1.1,0.55,0.45,0.3,2.09199009998702,4.95,"exp2",0,-0.1,0,0.818181818181818,2.75,2.25,-0.5,-0.181818181818182,0.1
"p301","up_down_width","match",24,3,3,1.89384319999954,2.2,0.55,0.45,0.35,1.73593009996694,4.95,"exp2",0,-0.1,0,0.818181818181818,1.65,1.35,-0.3,-0.181818181818182,0.1
"p301","up_down_width","initial",25,5,5,2.33022940001683,0.7,0.4,0.45,0.4,1.21215079998365,3.2,"exp2",0,0.05,0,1.125,2,2.25,0.25,0.125,0.05
"p301","up_down_width","match",26,4,3,1.71093719999772,0.6,0.55,0.45,0.3,2.01022009999724,2.35,"exp2",-1,-0.1,-0.25,0.818181818181818,2.2,1.35,-0.85,-0.181818181818182,0.1
"p301","up_down_width","match",27,5,4,1.50104519998422,0.675,0.4,0.4,0.45,1.40682029997697,3.1,"exp2",-1,0,-0.2,1,2,1.6,-0.4,0,0
"p301","up_down_width","match",28,4,3,2.23748129996238,0.6,0.25,0.2,0.5,2.24269770004321,2.05,"exp2",-1,-0.0499999999999999,-0.25,0.8,1,0.6,-0.4,-0.2,0.0499999999999999
"p301","up_down_width","initial",29,3,2,1.33450979995541,1.1,0.4,0.35,0.45,1.16797189996578,2.6,"exp2",-1,-0.05,-0.333333333333333,0.875,1.2,0.7,-0.5,-0.125,0.05
"p301","up_down_width","initial",30,3,2,0.994089400046505,0.9,0.55,0.5,0.3,2.61645560001489,2.35,"exp2",-1,-0.0500000000000001,-0.333333333333333,0.909090909090909,1.65,1,-0.65,-0.0909090909090911,0.0500000000000001
"p301","up_down_width","initial",31,5,5,2.48929019999923,1.1,0.25,0.2,0.35,1.50948380003683,4.65,"exp2",0,-0.05,0,0.8,1.25,1,-0.25,-0.2,0.05
"p301","up_down_width","initial",32,5,5,1.39401730004465,0.7,0.55,0.45,0.25,1.68858179997187,3.35,"exp2",0,-0.1,0,0.818181818181818,2.75,2.25,-0.5,-0.181818181818182,0.1
"p301","up_down_width","initial",33,3,2,1.59684210002888,1.1,0.55,0.55,0.2,2.65100489999168,2.75,"exp2",-1,-1.11022302462516e-16,-0.333333333333333,1,1.65,1.1,-0.55,-2.01858731750028e-16,1.11022302462516e-16
"p301","up_down_width","initial",34,5,5,1.28903919999721,0.9,0.55,0.5,0.5,1.52416560001438,4.15,"exp2",0,-0.05,0,0.909090909090909,2.75,2.5,-0.25,-0.090909090909091,0.05
"p301","up_down_width","match",35,3,3,1.72664850001456,1.8,0.25,0.25,0.35,1.35136949998559,3.85,"exp2",0,0,0,1,0.75,0.75,0,0,0
"p301","up_down_width","match",36,4,3,1.41958300000988,0.733333333333333,0.55,0.5,0.45,1.05724130000453,2.75,"exp2",-1,-0.05,-0.25,0.909090909090909,2.2,1.5,-0.7,-0.090909090909091,0.05
"p301","up_down_width","match",37,3,3,1.31939259998035,1.8,0.4,0.3,0.4,1.93837769998936,4,"exp2",0,-0.1,0,0.75,1.2,0.9,-0.3,-0.25,0.1
"p301","up_down_width","match",38,5,5,1.74188260000665,0.8625,0.25,0.15,0.35,1.59107959998073,3.7,"exp2",0,-0.1,0,0.6,1.25,0.75,-0.5,-0.4,0.1
"p301","up_down_width","match",39,5,5,1.70478829997592,0.525,0.25,0.15,0.5,2.32263520004926,2.35,"exp2",0,-0.0999999999999999,0,0.6,1.25,0.75,-0.5,-0.4,0.0999999999999999
"p301","up_down_width","match",40,3,2,1.82347220001975,1.4,0.25,0.15,0.2,1.79657890001545,3.05,"exp2",-1,-0.1,-0.333333333333333,0.6,0.75,0.3,-0.45,-0.4,0.1
"p301","up_down_width","initial",41,4,3,1.31020259996876,0.7,0.4,0.3,0.4,1.27206019998994,2.5,"exp2",-1,-0.1,-0.25,0.75,1.6,0.9,-0.7,-0.25,0.1
"p301","up_down_width","match",42,5,5,1.57103550003376,0.675,0.25,0.1,0.25,1.52206930000102,2.95,"exp2",0,-0.15,0,0.4,1.25,0.5,-0.75,-0.6,0.15
"p301","up_down_width","initial",43,3,2,1.40528620005352,0.7,0.55,0.4,0.3,1.97129309998127,1.95,"exp2",-1,-0.15,-0.333333333333333,0.727272727272727,1.65,0.8,-0.85,-0.272727272727273,0.15
"p301","up_down_width","match",44,4,3,2.09801760001574,0.466666666666667,0.4,0.3,0.45,1.72544660000131,1.8,"exp2",-1,-0.1,-0.25,0.75,1.6,0.9,-0.7,-0.25,0.1
"p301","up_down_width","initial",45,4,3,2.03654890001053,1.1,0.25,0.2,0.5,1.93841209996026,3.55,"exp2",-1,-0.0499999999999999,-0.25,0.8,1,0.6,-0.4,-0.2,0.0499999999999999
"p301","up_down_width","match",46,3,2,1.64886740001384,1.4,0.55,0.45,0.25,2.302493999945,3.35,"exp2",-1,-0.1,-0.333333333333333,0.818181818181818,1.65,0.9,-0.75,-0.181818181818182,0.1
"p301","up_down_width","initial",47,4,3,2.98254539998015,0.7,0.55,0.5,0.4,1.98257629998261,2.65,"exp2",-1,-0.05,-0.25,0.909090909090909,2.2,1.5,-0.7,-0.090909090909091,0.05
"p301","up_down_width","match",48,3,4,1.41553210001439,2.2,0.4,0.4,0.35,1.725646100007,4.8,"exp2",1,-5.55111512312578e-17,0.333333333333333,1,1.2,1.6,0.4,-1.38777878078145e-16,5.55111512312578e-17
"p301","up_down_width","match",49,3,3,1.3286584999878,2.2,0.25,0.2,0.35,2.01013049995527,4.65,"exp2",0,-0.05,0,0.8,0.75,0.6,-0.15,-0.2,0.05
"p301","up_down_width","initial",50,4,3,1.75722560001304,1.1,0.4,0.35,0.3,1.74877869995544,3.7,"exp2",-1,-0.05,-0.25,0.875,1.6,1.05,-0.55,-0.125,0.05
"p301","up_down_width","initial",51,5,5,1.42406889999984,0.9,0.4,0.3,0.4,1.92685250000795,4,"exp2",0,-0.1,0,0.75,2,1.5,-0.5,-0.25,0.1
"p301","up_down_width","initial",52,3,2,1.58132430003025,0.9,0.25,0.2,0.2,1.1654203000362,2.05,"exp2",-1,-0.05,-0.333333333333333,0.8,0.75,0.4,-0.35,-0.2,0.05
"p301","up_down_width","match",1,3,3,2.64274229999864,1.8,0.25,0.15,0.5,3.25603980000596,3.85,"exp2",0,-0.0999999999999999,0,0.6,0.75,0.45,-0.3,-0.4,0.0999999999999999
"p301","up_down_width","match",2,5,5,2.93994840001687,0.8625,0.25,0.25,0.25,1.28623769996921,3.7,"exp2",0,0,0,1,1.25,1.25,0,0,0
"p301","up_down_width","match",3,3,3,1.25946709996788,1.475,0.25,0.15,0.4,2.00791819998994,3.2,"exp2",0,-0.0999999999999999,0,0.6,0.75,0.45,-0.3,-0.4,0.0999999999999999
"p301","up_down_width","match",4,4,4,1.41233620001003,0.733333333333333,0.25,0.25,0.55,2.15447910001967,2.45,"exp2",0,5.55111512312578e-17,0,1,1,1,2.22044604925031e-16,2.22044604925031e-16,5.55111512312578e-17
"p301","up_down_width","match",5,4,4,2.63515079999343,0.466666666666667,0.25,0.2,0.35,1.74547010002425,1.65,"exp2",0,-0.05,0,0.8,1,0.8,-0.2,-0.2,0.05
"p301","up_down_width","initial",6,4,4,1.7644967000233,1.1,0.25,0.2,0.35,1.32499729999108,3.55,"exp2",0,-0.05,0,0.8,1,0.8,-0.2,-0.2,0.05
"p301","up_down_width","match",7,3,3,2.28012350003701,2.2,0.25,0.2,0.4,1.59680500003742,4.65,"exp2",0,-0.0499999999999999,0,0.8,0.75,0.6,-0.15,-0.2,0.0499999999999999
"p301","up_down_width","match",8,5,5,1.87259570002789,0.675,0.25,0.15,0.55,2.21265649999259,2.95,"exp2",0,-0.0999999999999999,0,0.6,1.25,0.75,-0.5,-0.4,0.0999999999999999
"p301","up_down_width","match",9,5,5,1.5094571999507,0.675,0.4,0.3,0.2,2.23169310000958,3.1,"exp2",0,-0.1,0,0.75,2,1.5,-0.5,-0.25,0.1
"p301","up_down_width","initial",10,5,5,1.25351860001683,0.9,0.4,0.3,0.2,2.27355499996338,4,"exp2",0,-0.1,0,0.75,2,1.5,-0.5,-0.25,0.1
"p301","up_down_width","initial",11,5,5,1.98461089999182,0.9,0.55,0.35,0.45,1.75957049999852,4.15,"exp2",0,-0.2,0,0.636363636363636,2.75,1.75,-1,-0.363636363636364,0.2
"p301","up_down_width","match",12,4,3,3.97864570003003,0.733333333333333,0.55,0.4,0.2,3.08288990001893,2.75,"exp2",-1,-0.15,-0.25,0.727272727272727,2.2,1.2,-1,-0.272727272727273,0.15
"p301","up_down_width","initial",13,4,4,2.14696230000118,0.7,0.25,0.15,0.2,2.76403180003399,2.35,"exp2",0,-0.1,0,0.6,1,0.6,-0.4,-0.4,0.1
"p301","up_down_width","initial",14,5,4,1.86985800002003,0.7,0.55,0.4,0.25,2.91427169996314,3.35,"exp2",-1,-0.15,-0.2,0.727272727272727,2.75,1.6,-1.15,-0.272727272727273,0.15
"p301","up_down_width","initial",15,3,2,1.47252279997338,1.1,0.55,0.45,0.4,1.86131629999727,2.75,"exp2",-1,-0.1,-0.333333333333333,0.818181818181818,1.65,0.9,-0.75,-0.181818181818182,0.1
"p301","up_down_width","initial",16,3,2,1.21214629994938,1.1,0.4,0.45,0.3,1.32268939999631,2.6,"exp2",-1,0.0499999999999999,-0.333333333333333,1.125,1.2,0.9,-0.3,0.125,0.0499999999999999
"p301","up_down_width","initial",17,3,2,1.10680350003531,0.7,0.4,0.35,0.5,1.62007229996379,1.8,"exp2",-1,-0.05,-0.333333333333333,0.875,1.2,0.7,-0.5,-0.125,0.05
"p301","up_down_width","initial",18,4,3,1.48259400000097,1.1,0.55,0.4,0.25,2.09554070001468,3.85,"exp2",-1,-0.15,-0.25,0.727272727272727,2.2,1.2,-1,-0.272727272727273,0.15
"p301","up_down_width","initial",19,4,3,1.21999010001309,0.9,0.55,0.5,0.4,1.48969290003879,3.25,"exp2",-1,-0.05,-0.25,0.909090909090909,2.2,1.5,-0.7,-0.090909090909091,0.05
"p301","up_down_width","match",20,3,3,1.21960479998961,1.8,0.55,0.5,0.35,1.71284390002256,4.15,"exp2",0,-0.0500000000000001,0,0.909090909090909,1.65,1.5,-0.15,-0.0909090909090911,0.0500000000000001
"p301","up_down_width","initial",21,3,2,1.07214109995402,0.7,0.25,0.2,0.4,3.139391899982,1.65,"exp2",-1,-0.0499999999999999,-0.333333333333333,0.8,0.75,0.4,-0.35,-0.2,0.0499999999999999
"p301","up_down_width","match",22,4,4,1.98431259999052,0.783333333333333,0.25,0.2,0.2,1.26313370000571,2.6,"exp2",0,-0.05,0,0.8,1,0.8,-0.2,-0.2,0.05
"p301","up_down_width","match",23,3,4,2.08033829997294,1.8,0.4,0.2,0.55,4.26797169999918,4,"exp2",1,-0.2,0.333333333333333,0.5,1.2,0.8,-0.4,-0.5,0.2
"p301","up_down_width","match",24,5,5,3.35765700001502,0.825,0.55,0.35,0.55,3.52588590001687,3.85,"exp2",0,-0.2,0,0.636363636363636,2.75,1.75,-1,-0.363636363636364,0.2
"p301","up_down_width","match",25,5,5,1.62876489997143,0.525,0.4,0.3,0.2,1.46641140000429,2.5,"exp2",0,-0.1,0,0.75,2,1.5,-0.5,-0.25,0.1
"p301","up_down_width","match",26,5,5,1.41138609999325,0.525,0.25,0.2,0.5,2.61813129996881,2.35,"exp2",0,-0.0499999999999999,0,0.8,1.25,1,-0.25,-0.2,0.0499999999999999
"p301","up_down_width","initial",27,4,4,1.67830649996176,1.1,0.4,0.35,0.3,2.18607679998968,3.7,"exp2",0,-0.05,0,0.875,1.6,1.4,-0.2,-0.125,0.05
"p301","up_down_width","initial",28,5,5,1.33261109999148,0.7,0.25,0.2,0.4,1.56636699999217,3.05,"exp2",0,-0.0499999999999999,0,0.8,1.25,1,-0.25,-0.2,0.0499999999999999
"p301","up_down_width","match",29,5,5,1.56937219999963,0.675,0.55,0.45,0.55,1.37738560000435,3.25,"exp2",0,-0.1,0,0.818181818181818,2.75,2.25,-0.5,-0.181818181818182,0.1
"p301","up_down_width","match",30,3,3,1.28391350002494,2.2,0.4,0.4,0.35,2.11074709997047,4.8,"exp2",0,-5.55111512312578e-17,0,1,1.2,1.2,-2.22044604925031e-16,-1.38777878078145e-16,5.55111512312578e-17
"p301","up_down_width","initial",31,3,2,1.13254870002856,0.7,0.55,0.4,0.4,1.11816549999639,1.95,"exp2",-1,-0.15,-0.333333333333333,0.727272727272727,1.65,0.8,-0.85,-0.272727272727273,0.15
"p301","up_down_width","match",32,5,4,1.65801830001874,0.825,0.25,0.15,0.45,2.51855290000094,3.55,"exp2",-1,-0.0999999999999999,-0.2,0.6,1.25,0.6,-0.65,-0.4,0.0999999999999999
"p301","up_down_width","match",33,4,3,1.76456949999556,0.6,0.25,0.2,0.55,2.5407569000381,2.05,"exp2",-1,-0.0499999999999999,-0.25,0.8,1,0.6,-0.4,-0.2,0.0499999999999999
"p301","up_down_width","initial",34,5,5,1.3375697999727,0.9,0.25,0.1,0.2,1.73218789999373,3.85,"exp2",0,-0.15,0,0.4,1.25,0.5,-0.75,-0.6,0.15
"p301","up_down_width","initial",35,4,3,1.64021300000604,0.7,0.4,0.3,0.45,1.30081410001731,2.5,"exp2",-1,-0.1,-0.25,0.75,1.6,0.9,-0.7,-0.25,0.1
"p301","up_down_width","initial",36,4,3,1.3219192000106,0.7,0.55,0.5,0.45,1.46051659999648,2.65,"exp2",-1,-0.05,-0.25,0.909090909090909,2.2,1.5,-0.7,-0.090909090909091,0.05
"p301","up_down_width","match",37,4,3,1.4190496999654,0.466666666666667,0.4,0.35,0.4,1.71290879999287,1.8,"exp2",-1,-0.05,-0.25,0.875,1.6,1.05,-0.55,-0.125,0.05
"p301","up_down_width","initial",38,3,2,1.13281350000761,0.9,0.55,0.4,0.35,1.98323179996805,2.35,"exp2",-1,-0.15,-0.333333333333333,0.727272727272727,1.65,0.8,-0.85,-0.272727272727273,0.15
"p301","up_down_width","initial",39,3,2,0.990190300042741,0.9,0.4,0.4,0.25,1.60508220002521,2.2,"exp2",-1,-5.55111512312578e-17,-0.333333333333333,1,1.2,0.8,-0.4,-1.38777878078145e-16,5.55111512312578e-17
"p301","up_down_width","match",40,3,2,1.16344909998588,2.2,0.55,0.5,0.5,1.34012880001683,4.95,"exp2",-1,-0.05,-0.333333333333333,0.909090909090909,1.65,1,-0.65,-0.090909090909091,0.05
"p301","up_down_width","initial",41,5,5,1.89788089995272,0.7,0.4,0.3,0.4,1.42059280001558,3.2,"exp2",0,-0.1,0,0.75,2,1.5,-0.5,-0.25,0.1
"p301","up_down_width","match",42,3,2,2.29211929999292,1.4,0.55,0.4,0.45,1.40124720003223,3.35,"exp2",-1,-0.15,-0.333333333333333,0.727272727272727,1.65,0.8,-0.85,-0.272727272727273,0.15
"p301","up_down_width","match",43,3,2,1.9909429999534,1.4,0.25,0.2,0.25,1.38202969997656,3.05,"exp2",-1,-0.05,-0.333333333333333,0.8,0.75,0.4,-0.35,-0.2,0.05
"p301","up_down_width","match",44,4,3,1.90543250000337,0.6,0.4,0.3,0.45,1.33295479998924,2.2,"exp2",-1,-0.1,-0.25,0.75,1.6,0.9,-0.7,-0.25,0.1
"p301","up_down_width","initial",45,5,5,1.34731550002471,1.1,0.55,0.4,0.45,1.6927312000189,4.95,"exp2",0,-0.15,0,0.727272727272727,2.75,2,-0.75,-0.272727272727273,0.15
"p301","up_down_width","initial",46,3,2,1.25358429999324,0.9,0.25,0.15,0.2,1.1708282000036,2.05,"exp2",-1,-0.1,-0.333333333333333,0.6,0.75,0.3,-0.45,-0.4,0.1
"p301","up_down_width","match",47,4,4,1.45099509996362,0.6,0.55,0.35,0.35,1.37473819998559,2.35,"exp2",0,-0.2,0,0.636363636363636,2.2,1.4,-0.8,-0.363636363636364,0.2
"p301","up_down_width","initial",48,5,5,1.51345249998849,1.1,0.4,0.35,0.55,1.29140520002693,4.8,"exp2",0,-0.05,0,0.875,2,1.75,-0.25,-0.125,0.05
"p301","up_down_width","initial",49,4,3,2.58494749997044,0.9,0.25,0.25,0.45,1.40818729996681,2.95,"exp2",-1,5.55111512312578e-17,-0.25,1,1,0.75,-0.25,2.22044604925031e-16,5.55111512312578e-17
"p301","up_down_width","initial",50,3,2,1.55769770004554,1.1,0.25,0.25,0.45,1.68521899997722,2.45,"exp2",-1,5.55111512312578e-17,-0.333333333333333,1,0.75,0.5,-0.25,2.22044604925031e-16,5.55111512312578e-17
"p301","up_down_width","initial",51,4,4,1.48613380000461,0.9,0.4,0.25,0.55,2.64207319996785,3.1,"exp2",0,-0.15,0,0.625,1.6,1,-0.6,-0.375,0.15
"p301","up_down_width","initial",52,5,5,1.78752129996428,1.1,0.25,0.25,0.55,2.45095470000524,4.65,"exp2",0,5.55111512312578e-17,0,1,1.25,1.25,2.22044604925031e-16,2.22044604925031e-16,5.55111512312578e-17
"p301","up_down_width","match",1,3,4,2.29878650000319,2.2,0.25,0.4,0.3,2.1888344999752,4.65,"exp2",1,0.15,0.333333333333333,1.6,0.75,1.6,0.85,0.6,0.15
"p301","up_down_width","initial",2,3,2,1.28284749999875,0.7,0.4,0.3,0.25,1.61594290001085,1.8,"exp2",-1,-0.1,-0.333333333333333,0.75,1.2,0.6,-0.6,-0.25,0.1
"p301","up_down_width","match",3,3,3,2.13580869999714,1.8,0.55,0.45,0.45,1.24932440003613,4.15,"exp2",0,-0.1,0,0.818181818181818,1.65,1.35,-0.3,-0.181818181818182,0.1
"p301","up_down_width","match",4,4,4,1.760297300003,0.6,0.4,0.4,0.25,1.80182769999374,2.2,"exp2",0,-5.55111512312578e-17,0,1,1.6,1.6,-2.22044604925031e-16,-1.38777878078145e-16,5.55111512312578e-17
"p301","up_down_width","initial",5,4,3,1.45681860001059,0.9,0.25,0.25,0.45,1.65332929999568,2.95,"exp2",-1,5.55111512312578e-17,-0.25,1,1,0.75,-0.25,2.22044604925031e-16,5.55111512312578e-17
"p301","up_down_width","initial",6,3,2,1.43059090001043,0.9,0.55,0.5,0.4,1.50127900001826,2.35,"exp2",-1,-0.05,-0.333333333333333,0.909090909090909,1.65,1,-0.65,-0.090909090909091,0.05
"p301","up_down_width","initial",7,4,4,3.28881030000048,0.7,0.25,0.2,0.45,2.24414249998517,2.35,"exp2",0,-0.0499999999999999,0,0.8,1,0.8,-0.2,-0.2,0.0499999999999999
"p301","up_down_width","match",8,3,3,1.57040939998114,2.2,0.55,0.45,0.3,1.7460503000184,4.95,"exp2",0,-0.1,0,0.818181818181818,1.65,1.35,-0.3,-0.181818181818182,0.1
"p301","up_down_width","initial",9,3,2,2.11588529997971,1.1,0.25,0.2,0.35,3.16548150003655,2.45,"exp2",-1,-0.05,-0.333333333333333,0.8,0.75,0.4,-0.35,-0.2,0.05
"p301","up_down_width","match",10,5,4,1.74662500002887,0.675,0.55,0.5,0.55,1.9328701000195,3.25,"exp2",-1,-0.05,-0.2,0.909090909090909,2.75,2,-0.75,-0.090909090909091,0.05
"p301","up_down_width","match",11,4,2,2.52821910002967,0.733333333333333,0.55,0.5,0.5,1.72255160001805,2.75,"exp2",-2,-0.05,-0.5,0.909090909090909,2.2,1,-1.2,-0.090909090909091,0.05
"p301","up_down_width","initial",12,5,5,3.02023690001806,1.1,0.4,0.3,0.35,1.42619349999586,4.8,"exp2",0,-0.1,0,0.75,2,1.5,-0.5,-0.25,0.1
"p301","up_down_width","initial",13,5,5,1.30177510000067,0.9,0.55,0.4,0.2,2.27215619996423,4.15,"exp2",0,-0.15,0,0.727272727272727,2.75,2,-0.75,-0.272727272727273,0.15
"p301","up_down_width","initial",14,3,2,1.34268389997305,0.7,0.25,0.15,0.35,2.16856389999157,1.65,"exp2",-1,-0.1,-0.333333333333333,0.6,0.75,0.3,-0.45,-0.4,0.1
"p301","up_down_width","initial",15,4,5,2.33336119999876,1.1,0.55,0.5,0.45,1.76028340001358,3.85,"exp2",1,-0.05,0.25,0.909090909090909,2.2,2.5,0.3,-0.090909090909091,0.05
"p301","up_down_width","initial",16,3,2,1.45948790002149,1.1,0.55,0.55,0.45,1.75121050002053,2.75,"exp2",-1,0,-0.333333333333333,1,1.65,1.1,-0.55,0,0
"p301","up_down_width","match",17,4,3,1.7169251999585,0.466666666666667,0.25,0.15,0.25,1.91949409997324,1.65,"exp2",-1,-0.1,-0.25,0.6,1,0.45,-0.55,-0.4,0.1
"p301","up_down_width","initial",18,5,5,1.70586400001775,0.9,0.25,0.15,0.25,2.75551329995506,3.85,"exp2",0,-0.1,0,0.6,1.25,0.75,-0.5,-0.4,0.1
"p301","up_down_width","initial",19,4,3,2.81839880003827,0.7,0.4,0.25,0.25,1.87288219999755,2.5,"exp2",-1,-0.15,-0.25,0.625,1.6,0.75,-0.85,-0.375,0.15
"p301","up_down_width","initial",20,5,4,2.44081249996088,0.7,0.55,0.45,0.4,3.07754000002751,3.35,"exp2",-1,-0.1,-0.2,0.818181818181818,2.75,1.8,-0.95,-0.181818181818182,0.1
"p301","up_down_width","initial",21,5,5,2.2353574000299,1.1,0.25,0.25,0.5,2.51380600000266,4.65,"exp2",0,5.55111512312578e-17,0,1,1.25,1.25,2.22044604925031e-16,2.22044604925031e-16,5.55111512312578e-17
"p301","up_down_width","initial",22,4,4,1.93014640000183,0.9,0.55,0.4,0.45,1.93276910000714,3.25,"exp2",0,-0.15,0,0.727272727272727,2.2,1.6,-0.6,-0.272727272727273,0.15
"p301","up_down_width","match",23,5,5,1.5484509000089,0.525,0.4,0.3,0.25,1.96600739995483,2.5,"exp2",0,-0.1,0,0.75,2,1.5,-0.5,-0.25,0.1
"p301","up_down_width","initial",24,5,5,1.34473050001543,0.7,0.4,0.25,0.5,2.61748279997846,3.2,"exp2",0,-0.15,0,0.625,2,1.25,-0.75,-0.375,0.15
"p301","up_down_width","initial",25,3,2,1.29465699999128,0.9,0.4,0.4,0.3,3.30554759997176,2.2,"exp2",-1,-5.55111512312578e-17,-0.333333333333333,1,1.2,0.8,-0.4,-1.38777878078145e-16,5.55111512312578e-17
"p301","up_down_width","match",26,5,5,1.64684080000734,0.675,0.25,0.2,0.55,2.23601330001839,2.95,"exp2",0,-0.0499999999999999,0,0.8,1.25,1,-0.25,-0.2,0.0499999999999999
"p301","up_down_width","initial",27,5,5,1.83516240003519,1.1,0.55,0.45,0.3,2.27210629999172,4.95,"exp2",0,-0.1,0,0.818181818181818,2.75,2.25,-0.5,-0.181818181818182,0.1
"p301","up_down_width","match",28,5,5,1.39883020002162,0.825,0.55,0.45,0.2,1.78925899998285,3.85,"exp2",0,-0.1,0,0.818181818181818,2.75,2.25,-0.5,-0.181818181818182,0.1
"p301","up_down_width","initial",29,4,4,1.34120530000655,0.9,0.4,0.3,0.35,1.46264109999174,3.1,"exp2",0,-0.1,0,0.75,1.6,1.2,-0.4,-0.25,0.1
"p301","up_down_width","initial",30,5,5,1.99330040003406,0.7,0.25,0.15,0.45,2.44064059999073,3.05,"exp2",0,-0.0999999999999999,0,0.6,1.25,0.75,-0.5,-0.4,0.0999999999999999
"p301","up_down_width","initial",31,4,4,3.64227469998877,1.1,0.25,0.1,0.55,3.03121640003519,3.55,"exp2",0,-0.15,0,0.4,1,0.4,-0.6,-0.6,0.15
"p301","up_down_width","match",32,3,3,2.2669114000164,1.4,0.25,0.1,0.45,2.27150490001077,3.05,"exp2",0,-0.15,0,0.4,0.75,0.3,-0.45,-0.6,0.15
"p301","up_down_width","match",33,3,3,2.14010299998336,1.8,0.4,0.25,0.25,1.33269609999843,4,"exp2",0,-0.15,0,0.625,1.2,0.75,-0.45,-0.375,0.15
"p301","up_down_width","initial",34,5,5,1.45830050000222,0.9,0.4,0.35,0.35,1.27257349999854,4,"exp2",0,-0.05,0,0.875,2,1.75,-0.25,-0.125,0.05
"p301","up_down_width","match",35,5,5,1.78953910002019,0.8625,0.25,0.15,0.55,2.46818429999985,3.7,"exp2",0,-0.0999999999999999,0,0.6,1.25,0.75,-0.5,-0.4,0.0999999999999999
"p301","up_down_width","match",36,4,3,1.64155300002312,0.6,0.25,0.2,0.4,2.55087030003779,2.05,"exp2",-1,-0.0499999999999999,-0.25,0.8,1,0.6,-0.4,-0.2,0.0499999999999999
"p301","up_down_width","match",37,4,4,1.58822889998555,0.733333333333333,0.25,0.15,0.3,2.25986640003975,2.45,"exp2",0,-0.1,0,0.6,1,0.6,-0.4,-0.4,0.1
"p301","up_down_width","initial",38,3,2,1.88902900001267,1.1,0.4,0.3,0.45,2.17884569999296,2.6,"exp2",-1,-0.1,-0.333333333333333,0.75,1.2,0.6,-0.6,-0.25,0.1
"p301","up_down_width","match",39,4,3,2.48445049999282,0.6,0.55,0.5,0.45,1.95077400002629,2.35,"exp2",-1,-0.05,-0.25,0.909090909090909,2.2,1.5,-0.7,-0.090909090909091,0.05
"p301","up_down_width","match",40,3,2,1.29033039999194,1.4,0.55,0.45,0.55,2.35827789996983,3.35,"exp2",-1,-0.1,-0.333333333333333,0.818181818181818,1.65,0.9,-0.75,-0.181818181818182,0.1
"p301","up_down_width","match",41,4,4,2.24920069996733,0.783333333333333,0.25,0.2,0.35,1.54925709997769,2.6,"exp2",0,-0.05,0,0.8,1,0.8,-0.2,-0.2,0.05
"p301","up_down_width","initial",42,3,2,1.32895950000966,0.7,0.55,0.5,0.25,4.05952939996496,1.95,"exp2",-1,-0.0500000000000001,-0.333333333333333,0.909090909090909,1.65,1,-0.65,-0.0909090909090911,0.0500000000000001
"p301","up_down_width","match",43,3,3,2.22416839998914,1.475,0.25,0.2,0.5,2.14887069998076,3.2,"exp2",0,-0.0499999999999999,0,0.8,0.75,0.6,-0.15,-0.2,0.0499999999999999
"p301","up_down_width","match",44,3,3,1.37297480000416,2.2,0.4,0.35,0.5,2.21284549997654,4.8,"exp2",0,-0.05,0,0.875,1.2,1.05,-0.15,-0.125,0.05
"p301","up_down_width","match",45,5,5,2.70764199999394,0.675,0.4,0.25,0.3,2.43864170002053,3.1,"exp2",0,-0.15,0,0.625,2,1.25,-0.75,-0.375,0.15
"p301","up_down_width","match",46,5,5,1.66007139999419,0.525,0.25,0.2,0.3,1.70520869997563,2.35,"exp2",0,-0.05,0,0.8,1.25,1,-0.25,-0.2,0.05
"p301","up_down_width","match",47,5,5,1.36617149994709,0.825,0.25,0.2,0.35,2.91131890000543,3.55,"exp2",0,-0.05,0,0.8,1.25,1,-0.25,-0.2,0.05
"p301","up_down_width","initial",48,4,4,2.02828229998704,0.7,0.55,0.4,0.55,1.54683720000321,2.65,"exp2",0,-0.15,0,0.727272727272727,2.2,1.6,-0.6,-0.272727272727273,0.15
"p301","up_down_width","match",49,4,3,1.91859160002787,0.466666666666667,0.4,0.3,0.4,2.63934749999316,1.8,"exp2",-1,-0.1,-0.25,0.75,1.6,0.9,-0.7,-0.25,0.1
"p301","up_down_width","initial",50,4,4,3.20622420002474,1.1,0.4,0.45,0.35,1.81419190001907,3.7,"exp2",0,0.0499999999999999,0,1.125,1.6,1.8,0.2,0.125,0.0499999999999999
"p301","up_down_width","initial",51,3,2,1.30057490000036,0.9,0.25,0.25,0.25,1.11933020001743,2.05,"exp2",-1,0,-0.333333333333333,1,0.75,0.5,-0.25,0,0
"p301","up_down_width","match",52,3,3,1.31092459999491,1.8,0.25,0.15,0.4,1.17794359999243,3.85,"exp2",0,-0.0999999999999999,0,0.6,0.75,0.45,-0.3,-0.4,0.0999999999999999
"p301","up_down_width","match",1,4,4,2.22018830000889,0.466666666666667,0.4,0.35,0.45,1.23364320001565,1.8,"exp2",0,-0.05,0,0.875,1.6,1.4,-0.2,-0.125,0.05
"p301","up_down_width","initial",2,5,4,1.55455609998899,0.9,0.25,0.25,0.5,1.77891709998948,3.85,"exp2",-1,5.55111512312578e-17,-0.2,1,1.25,1,-0.25,2.22044604925031e-16,5.55111512312578e-17
"p301","up_down_width","match",3,3,3,1.68457939999644,1.8,0.55,0.5,0.45,1.16753799997969,4.15,"exp2",0,-0.05,0,0.909090909090909,1.65,1.5,-0.15,-0.090909090909091,0.05
"p301","up_down_width","match",4,5,5,1.31408829998691,0.525,0.25,0.25,0.55,2.221780199965,2.35,"exp2",0,5.55111512312578e-17,0,1,1.25,1.25,2.22044604925031e-16,2.22044604925031e-16,5.55111512312578e-17
"p301","up_down_width","initial",5,4,5,3.64958149997983,0.9,0.4,0.35,0.2,1.8855567999999,3.1,"exp2",1,-0.05,0.25,0.875,1.6,1.75,0.15,-0.125,0.05
"p301","up_down_width","match",6,5,5,2.16889279999305,0.675,0.55,0.35,0.25,1.7294830000028,3.25,"exp2",0,-0.2,0,0.636363636363636,2.75,1.75,-1,-0.363636363636364,0.2
"p301","up_down_width","match",7,4,3,1.9883942999877,0.733333333333333,0.25,0.2,0.4,2.38613519998034,2.45,"exp2",-1,-0.0499999999999999,-0.25,0.8,1,0.6,-0.4,-0.2,0.0499999999999999
"p301","up_down_width","match",8,5,4,3.14208560000407,0.675,0.4,0.2,0.3,2.71131529996637,3.1,"exp2",-1,-0.2,-0.2,0.5,2,0.8,-1.2,-0.5,0.2
"p301","up_down_width","initial",9,3,3,3.93209790001856,0.9,0.55,0.4,0.35,1.16596269997535,2.35,"exp2",0,-0.15,0,0.727272727272727,1.65,1.2,-0.45,-0.272727272727273,0.15
"p301","up_down_width","initial",10,5,5,1.74763509997865,1.1,0.25,0.1,0.2,1.96424380003009,4.65,"exp2",0,-0.15,0,0.4,1.25,0.5,-0.75,-0.6,0.15
"p301","up_down_width","initial",11,4,3,2.30565779999597,0.9,0.55,0.4,0.25,1.86012490000576,3.25,"exp2",-1,-0.15,-0.25,0.727272727272727,2.2,1.2,-1,-0.272727272727273,0.15
"p301","up_down_width","initial",12,3,2,1.14890550001292,0.9,0.25,0.25,0.5,1.3422230000142,2.05,"exp2",-1,5.55111512312578e-17,-0.333333333333333,1,0.75,0.5,-0.25,2.22044604925031e-16,5.55111512312578e-17
"p301","up_down_width","match",13,3,2,1.26849739998579,1.4,0.25,0.2,0.45,1.12068019999424,3.05,"exp2",-1,-0.0499999999999999,-0.333333333333333,0.8,0.75,0.4,-0.35,-0.2,0.0499999999999999
"p301","up_down_width","initial",14,4,4,1.89532179996604,0.7,0.55,0.4,0.35,1.19454489997588,2.65,"exp2",0,-0.15,0,0.727272727272727,2.2,1.6,-0.6,-0.272727272727273,0.15
"p301","up_down_width","initial",15,5,4,2.24805350002134,0.9,0.55,0.45,0.35,1.03605120000429,4.15,"exp2",-1,-0.1,-0.2,0.818181818181818,2.75,1.8,-0.95,-0.181818181818182,0.1
"p301","up_down_width","match",16,4,3,1.73512090003351,0.733333333333333,0.55,0.5,0.3,1.19944150000811,2.75,"exp2",-1,-0.0500000000000001,-0.25,0.909090909090909,2.2,1.5,-0.7,-0.0909090909090911,0.0500000000000001
"p301","up_down_width","initial",17,3,2,1.3086878999602,0.7,0.4,0.45,0.35,1.43272799998522,1.8,"exp2",-1,0.0499999999999999,-0.333333333333333,1.125,1.2,0.9,-0.3,0.125,0.0499999999999999
"p301","up_down_width","initial",18,3,2,0.992360899981577,1.1,0.25,0.15,0.25,1.51129749999382,2.45,"exp2",-1,-0.1,-0.333333333333333,0.6,0.75,0.3,-0.45,-0.4,0.1
"p301","up_down_width","match",19,4,3,2.19625340000493,0.6,0.55,0.45,0.45,1.59483909996925,2.35,"exp2",-1,-0.1,-0.25,0.818181818181818,2.2,1.35,-0.85,-0.181818181818182,0.1
"p301","up_down_width","match",20,4,3,1.61775879998459,0.6,0.25,0.2,0.35,1.10399010003312,2.05,"exp2",-1,-0.05,-0.25,0.8,1,0.6,-0.4,-0.2,0.05
"p301","up_down_width","initial",21,3,2,0.8961915000109,0.9,0.4,0.25,0.4,1.19556350004859,2.2,"exp2",-1,-0.15,-0.333333333333333,0.625,1.2,0.5,-0.7,-0.375,0.15
"p301","up_down_width","initial",22,4,4,1.24641180003528,0.7,0.4,0.2,0.45,2.49136310000904,2.5,"exp2",0,-0.2,0,0.5,1.6,0.8,-0.8,-0.5,0.2
"p301","up_down_width","initial",23,5,5,1.48849269998027,1.1,0.4,0.4,0.5,2.09941099997377,4.8,"exp2",0,0,0,1,2,2,0,0,0
"p301","up_down_width","match",24,5,4,1.2069420000189,0.8625,0.25,0.25,0.35,1.06145709997509,3.7,"exp2",-1,0,-0.2,1,1.25,1,-0.25,0,0
"p301","up_down_width","match",25,4,4,2.32484700001078,0.783333333333333,0.25,0.2,0.55,2.1185356999631,2.6,"exp2",0,-0.0499999999999999,0,0.8,1,0.8,-0.2,-0.2,0.0499999999999999
"p301","up_down_width","match",26,5,5,1.33889930002624,0.525,0.4,0.35,0.5,1.84333770000376,2.5,"exp2",0,-0.05,0,0.875,2,1.75,-0.25,-0.125,0.05
"p301","up_down_width","match",27,3,4,1.10715140000684,1.8,0.25,0.2,0.45,1.86177789996145,3.85,"exp2",1,-0.0499999999999999,0.333333333333333,0.8,0.75,0.8,0.0500000000000003,-0.2,0.0499999999999999
"p301","up_down_width","match",28,3,3,1.91783599997871,2.2,0.55,0.5,0.4,1.58407119999174,4.95,"exp2",0,-0.05,0,0.909090909090909,1.65,1.5,-0.15,-0.090909090909091,0.05
"p301","up_down_width","initial",29,5,5,1.25176540005486,0.9,0.4,0.4,0.45,1.61620910000056,4,"exp2",0,0,0,1,2,2,0,0,0
"p301","up_down_width","initial",30,5,4,1.45993200002704,0.7,0.25,0.15,0.5,2.21603220002726,3.05,"exp2",-1,-0.0999999999999999,-0.2,0.6,1.25,0.6,-0.65,-0.4,0.0999999999999999
"p301","up_down_width","initial",31,3,2,1.38506659999257,0.7,0.25,0.15,0.25,1.15278800000669,1.65,"exp2",-1,-0.1,-0.333333333333333,0.6,0.75,0.3,-0.45,-0.4,0.1
"p301","up_down_width","initial",32,3,2,1.42887850000989,0.7,0.55,0.35,0.45,1.16294249997009,1.95,"exp2",-1,-0.2,-0.333333333333333,0.636363636363636,1.65,0.7,-0.95,-0.363636363636364,0.2
"p301","up_down_width","initial",33,4,4,1.25799850001931,1.1,0.55,0.45,0.45,0.998835499980487,3.85,"exp2",0,-0.1,0,0.818181818181818,2.2,1.8,-0.4,-0.181818181818182,0.1
"p301","up_down_width","match",34,3,2,1.00852380000288,1.4,0.55,0.4,0.45,0.902315100014675,3.35,"exp2",-1,-0.15,-0.333333333333333,0.727272727272727,1.65,0.8,-0.85,-0.272727272727273,0.15
"p301","up_down_width","match",35,3,3,1.65121639997233,2.2,0.4,0.35,0.2,1.10314109997125,4.8,"exp2",0,-0.05,0,0.875,1.2,1.05,-0.15,-0.125,0.05
"p301","up_down_width","initial",36,3,2,1.12633240001742,1.1,0.55,0.4,0.2,1.7527363000554,2.75,"exp2",-1,-0.15,-0.333333333333333,0.727272727272727,1.65,0.8,-0.85,-0.272727272727273,0.15
"p301","up_down_width","initial",37,4,3,1.57752220000839,1.1,0.25,0.35,0.45,1.41745579999406,3.55,"exp2",-1,0.1,-0.25,1.4,1,1.05,0.05,0.4,0.1
"p301","up_down_width","match",38,5,5,1.49217660003342,0.825,0.55,0.45,0.25,1.62295509997057,3.85,"exp2",0,-0.1,0,0.818181818181818,2.75,2.25,-0.5,-0.181818181818182,0.1
"p301","up_down_width","match",39,4,3,1.75622939999448,0.6,0.4,0.3,0.35,1.62167299998691,2.2,"exp2",-1,-0.1,-0.25,0.75,1.6,0.9,-0.7,-0.25,0.1
"p301","up_down_width","match",40,4,4,1.69369260000531,0.466666666666667,0.25,0.15,0.45,2.15327519999119,1.65,"exp2",0,-0.0999999999999999,0,0.6,1,0.6,-0.4,-0.4,0.0999999999999999
"p301","up_down_width","match",41,3,4,1.57224790001055,1.8,0.4,0.2,0.4,1.46030370000517,4,"exp2",1,-0.2,0.333333333333333,0.5,1.2,0.8,-0.4,-0.5,0.2
"p301","up_down_width","initial",42,4,5,2.73084149998613,0.9,0.25,0.2,0.4,1.46834300004411,2.95,"exp2",1,-0.0499999999999999,0.25,0.8,1,1,4.44089209850063e-16,-0.2,0.0499999999999999
"p301","up_down_width","match",43,3,2,1.41223849996459,1.475,0.25,0.2,0.5,1.83455999998841,3.2,"exp2",-1,-0.0499999999999999,-0.333333333333333,0.8,0.75,0.4,-0.35,-0.2,0.0499999999999999
"p301","up_down_width","initial",44,5,5,1.29578439996112,0.7,0.55,0.45,0.3,1.40180150000378,3.35,"exp2",0,-0.1,0,0.818181818181818,2.75,2.25,-0.5,-0.181818181818182,0.1
"p301","up_down_width","match",45,5,5,1.24090299999807,0.825,0.25,0.15,0.5,3.03122720000101,3.55,"exp2",0,-0.0999999999999999,0,0.6,1.25,0.75,-0.5,-0.4,0.0999999999999999
"p301","up_down_width","initial",46,5,5,1.28465270000743,1.1,0.55,0.5,0.2,1.93606680002995,4.95,"exp2",0,-0.0500000000000001,0,0.909090909090909,2.75,2.5,-0.25,-0.0909090909090911,0.0500000000000001
"p301","up_down_width","initial",47,4,5,2.49914369999897,1.1,0.4,0.45,0.35,1.43849159998354,3.7,"exp2",1,0.0499999999999999,0.25,1.125,1.6,2.25,0.65,0.125,0.0499999999999999
"p301","up_down_width","initial",48,5,5,1.30127579998225,0.7,0.4,0.45,0.3,1.50513979996322,3.2,"exp2",0,0.0499999999999999,0,1.125,2,2.25,0.25,0.125,0.0499999999999999
"p301","up_down_width","initial",49,3,2,1.18099059996894,1.1,0.4,0.35,0.2,2.06124720000662,2.6,"exp2",-1,-0.05,-0.333333333333333,0.875,1.2,0.7,-0.5,-0.125,0.05
"p301","up_down_width","initial",50,4,3,2.11588200001279,0.7,0.25,0.3,0.2,1.50218950002454,2.35,"exp2",-1,0.05,-0.25,1.2,1,0.9,-0.1,0.2,0.05
"p301","up_down_width","match",51,3,4,2.14716910000425,2.2,0.25,0.15,0.3,1.89948960003676,4.65,"exp2",1,-0.1,0.333333333333333,0.6,0.75,0.6,-0.15,-0.4,0.1
"p301","up_down_width","match",52,5,5,1.10596439999063,0.675,0.25,0.1,0.3,1.8114800999756,2.95,"exp2",0,-0.15,0,0.4,1.25,0.5,-0.75,-0.6,0.15
"p302","up_down_width","initial",1,5,4,1.74634460001835,0.9,0.4,0.4,0.55,3.35424539999804,4,"exp2",-1,0,-0.2,1,2,1.6,-0.4,0,0
"p302","up_down_width","match",2,3,2,1.51230040000519,2.2,0.25,0.25,0.5,4.28252720000455,4.65,"exp2",-1,5.55111512312578e-17,-0.333333333333333,1,0.75,0.5,-0.25,2.22044604925031e-16,5.55111512312578e-17
"p302","up_down_width","initial",3,3,3,1.90481189999264,0.9,0.25,0.25,0.3,2.70774899999378,2.05,"exp2",0,0,0,1,0.75,0.75,0,0,0
"p302","up_down_width","match",4,5,5,1.88834219999262,0.825,0.55,0.35,0.25,1.84289349999744,3.85,"exp2",0,-0.2,0,0.636363636363636,2.75,1.75,-1,-0.363636363636364,0.2
"p302","up_down_width","match",5,5,3,2.39453329998651,0.525,0.4,0.4,0.35,2.15318429999752,2.5,"exp2",-2,-5.55111512312578e-17,-0.4,1,2,1.2,-0.8,-1.38777878078145e-16,5.55111512312578e-17
"p302","up_down_width","initial",6,3,2,1.25487760000397,0.9,0.55,0.65,0.45,2.17894250000245,2.35,"exp2",-1,0.1,-0.333333333333333,1.18181818181818,1.65,1.3,-0.35,0.181818181818182,0.1
"p302","up_down_width","initial",7,4,4,3.2767950000125,1.1,0.25,0.25,0.5,5.62485069999821,3.55,"exp2",0,5.55111512312578e-17,0,1,1,1,2.22044604925031e-16,2.22044604925031e-16,5.55111512312578e-17
"p302","up_down_width","match",8,3,2,1.78681279998273,2.2,0.55,0.45,0.4,2.4016902000003,4.95,"exp2",-1,-0.1,-0.333333333333333,0.818181818181818,1.65,0.9,-0.75,-0.181818181818182,0.1
"p302","up_down_width","match",9,4,3,2.48942219998571,0.466666666666667,0.4,0.4,0.25,3.71556370001053,1.8,"exp2",-1,-5.55111512312578e-17,-0.25,1,1.6,1.2,-0.4,-1.38777878078145e-16,5.55111512312578e-17
"p302","up_down_width","match",10,5,3,2.00916909999796,0.675,0.55,0.6,0.25,3.39941270000418,3.25,"exp2",-2,0.0499999999999999,-0.4,1.09090909090909,2.75,1.8,-0.95,0.0909090909090908,0.0499999999999999
"p302","up_down_width","match",11,4,4,1.45942930001183,0.6,0.4,0.5,0.35,2.13620979999541,2.2,"exp2",0,0.0999999999999999,0,1.25,1.6,2,0.4,0.25,0.0999999999999999
"p302","up_down_width","match",12,5,5,2.5682031000033,0.675,0.4,0.45,0.55,1.66524870001012,3.1,"exp2",0,0.05,0,1.125,2,2.25,0.25,0.125,0.05
"p302","up_down_width","initial",13,5,5,1.84219530000701,0.7,0.4,0.45,0.55,2.72772139997687,3.2,"exp2",0,0.05,0,1.125,2,2.25,0.25,0.125,0.05
"p302","up_down_width","initial",14,5,4,1.69917119998718,1.1,0.4,0.5,0.35,1.98264320002636,4.8,"exp2",-1,0.0999999999999999,-0.2,1.25,2,2,-2.22044604925031e-16,0.25,0.0999999999999999
"p302","up_down_width","initial",15,4,3,1.60169140002108,1.1,0.55,0.45,0.25,1.87356340000406,3.85,"exp2",-1,-0.1,-0.25,0.818181818181818,2.2,1.35,-0.85,-0.181818181818182,0.1
"p302","up_down_width","initial",16,3,2,1.21829200000502,1.1,0.25,0.25,0.5,3.68074739997974,2.45,"exp2",-1,5.55111512312578e-17,-0.333333333333333,1,0.75,0.5,-0.25,2.22044604925031e-16,5.55111512312578e-17
"p302","up_down_width","match",17,3,2,1.49943490000442,2.2,0.4,0.45,0.35,2.47826450000866,4.8,"exp2",-1,0.0499999999999999,-0.333333333333333,1.125,1.2,0.9,-0.3,0.125,0.0499999999999999
"p302","up_down_width","initial",18,5,4,1.72618709999369,0.9,0.25,0.2,0.35,2.1039155999897,3.85,"exp2",-1,-0.05,-0.2,0.8,1.25,0.8,-0.45,-0.2,0.05
"p302","up_down_width","initial",19,4,4,1.72889609998674,0.7,0.4,0.4,0.4,1.09916369998246,2.5,"exp2",0,0,0,1,1.6,1.6,0,0,0
"p302","up_down_width","initial",20,3,2,1.41466020001099,0.7,0.4,0.45,0.4,1.50172500000917,1.8,"exp2",-1,0.05,-0.333333333333333,1.125,1.2,0.9,-0.3,0.125,0.05
"p302","up_down_width","initial",21,3,2,1.29747560000396,1.1,0.55,0.55,0.35,2.34967669998878,2.75,"exp2",-1,-1.11022302462516e-16,-0.333333333333333,1,1.65,1.1,-0.55,-2.01858731750028e-16,1.11022302462516e-16
"p302","up_down_width","initial",22,4,4,1.62834729999304,1.1,0.4,0.55,0.5,3.59346950001782,3.7,"exp2",0,0.15,0,1.375,1.6,2.2,0.6,0.375,0.15
"p302","up_down_width","match",23,3,2,1.44432540002163,1.8,0.25,0.15,0.3,4.90458979998948,3.85,"exp2",-1,-0.1,-0.333333333333333,0.6,0.75,0.3,-0.45,-0.4,0.1
"p302","up_down_width","match",24,5,5,1.92207130001043,0.8625,0.25,0.2,0.25,1.97093939999468,3.7,"exp2",0,-0.05,0,0.8,1.25,1,-0.25,-0.2,0.05
"p302","up_down_width","match",25,4,3,1.47373930001049,0.466666666666667,0.25,0.15,0.45,2.91776579999714,1.65,"exp2",-1,-0.0999999999999999,-0.25,0.6,1,0.45,-0.55,-0.4,0.0999999999999999
"p302","up_down_width","match",26,4,3,1.64565289998427,0.6,0.55,0.6,0.2,4.71578919998137,2.35,"exp2",-1,0.0499999999999999,-0.25,1.09090909090909,2.2,1.8,-0.4,0.0909090909090908,0.0499999999999999
"p302","up_down_width","initial",27,4,3,1.39799509997829,0.7,0.25,0.2,0.35,1.66159630002221,2.35,"exp2",-1,-0.05,-0.25,0.8,1,0.6,-0.4,-0.2,0.05
"p302","up_down_width","initial",28,5,5,2.68974549998529,1.1,0.55,0.55,0.45,1.70084010000573,4.95,"exp2",0,0,0,1,2.75,2.75,0,0,0
"p302","up_down_width","match",29,4,3,1.4912239999976,0.733333333333333,0.55,0.65,0.4,1.94157359999372,2.75,"exp2",-1,0.1,-0.25,1.18181818181818,2.2,1.95,-0.25,0.181818181818182,0.1
"p302","up_down_width","initial",30,4,4,1.47033949999604,0.9,0.25,0.2,0.4,3.37828310002806,2.95,"exp2",0,-0.0499999999999999,0,0.8,1,0.8,-0.2,-0.2,0.0499999999999999
"p302","up_down_width","match",31,5,6,1.57357389997924,0.825,0.25,0.2,0.35,2.98127250000834,3.55,"exp2",1,-0.05,0.2,0.8,1.25,1.2,-0.0499999999999998,-0.2,0.05
"p302","up_down_width","match",32,4,4,1.57343459999538,0.733333333333333,0.25,0.2,0.55,2.93298090001917,2.45,"exp2",0,-0.0499999999999999,0,0.8,1,0.8,-0.2,-0.2,0.0499999999999999
"p302","up_down_width","initial",33,3,2,1.58434349999879,0.9,0.4,0.4,0.2,2.73615799998515,2.2,"exp2",-1,-5.55111512312578e-17,-0.333333333333333,1,1.2,0.8,-0.4,-1.38777878078145e-16,5.55111512312578e-17
"p302","up_down_width","match",34,3,3,1.41982560002361,1.4,0.55,0.6,0.55,1.80999350000639,3.35,"exp2",0,0.05,0,1.09090909090909,1.65,1.8,0.15,0.090909090909091,0.05
"p302","up_down_width","match",35,3,2,1.13874429999851,1.4,0.25,0.35,0.25,1.73208899999736,3.05,"exp2",-1,0.1,-0.333333333333333,1.4,0.75,0.7,-0.05,0.4,0.1
"p302","up_down_width","match",36,5,5,1.50365629998851,0.675,0.25,0.2,0.35,1.76277079997817,2.95,"exp2",0,-0.05,0,0.8,1.25,1,-0.25,-0.2,0.05
"p302","up_down_width","initial",37,4,3,1.16131229998427,0.9,0.55,0.55,0.3,3.22593590000179,3.25,"exp2",-1,-1.11022302462516e-16,-0.25,1,2.2,1.65,-0.55,-2.01858731750028e-16,1.11022302462516e-16
"p302","up_down_width","initial",38,5,5,1.32413470000029,0.7,0.55,0.65,0.45,1.4299866000074,3.35,"exp2",0,0.1,0,1.18181818181818,2.75,3.25,0.500000000000001,0.181818181818182,0.1
"p302","up_down_width","initial",39,4,4,1.2468869999866,0.7,0.55,0.6,0.4,1.88506190001499,2.65,"exp2",0,0.05,0,1.09090909090909,2.2,2.4,0.2,0.090909090909091,0.05
"p302","up_down_width","initial",40,5,6,1.43834140000399,0.9,0.55,0.55,0.3,3.12303040002007,4.15,"exp2",1,-1.11022302462516e-16,0.2,1,2.75,3.3,0.55,-2.01858731750028e-16,1.11022302462516e-16
"p302","up_down_width","initial",41,5,5,1.8825098000234,1.1,0.25,0.15,0.5,4.23732960000052,4.65,"exp2",0,-0.0999999999999999,0,0.6,1.25,0.75,-0.5,-0.4,0.0999999999999999
"p302","up_down_width","match",42,3,2,1.12492750000092,1.475,0.25,0.15,0.55,4.35949149998487,3.2,"exp2",-1,-0.0999999999999999,-0.333333333333333,0.6,0.75,0.3,-0.45,-0.4,0.0999999999999999
"p302","up_down_width","match",43,3,2,1.12957319998532,1.8,0.4,0.3,0.4,2.61951719998615,4,"exp2",-1,-0.1,-0.333333333333333,0.75,1.2,0.6,-0.6,-0.25,0.1
"p302","up_down_width","initial",44,3,2,1.58891960000619,1.1,0.4,0.4,0.3,1.71618879999733,2.6,"exp2",-1,-5.55111512312578e-17,-0.333333333333333,1,1.2,0.8,-0.4,-1.38777878078145e-16,5.55111512312578e-17
"p302","up_down_width","match",45,4,4,1.33015379999415,0.783333333333333,0.25,0.25,0.55,3.40319919999456,2.6,"exp2",0,5.55111512312578e-17,0,1,1,1,2.22044604925031e-16,2.22044604925031e-16,5.55111512312578e-17
"p302","up_down_width","initial",46,3,2,1.98029529998894,0.7,0.55,0.5,0.25,3.37154190000729,1.95,"exp2",-1,-0.0500000000000001,-0.333333333333333,0.909090909090909,1.65,1,-0.65,-0.0909090909090911,0.0500000000000001
"p302","up_down_width","match",47,3,2,1.41497339998023,1.8,0.55,0.5,0.3,2.46117700001923,4.15,"exp2",-1,-0.0500000000000001,-0.333333333333333,0.909090909090909,1.65,1,-0.65,-0.0909090909090911,0.0500000000000001
"p302","up_down_width","initial",48,4,4,1.36099129999639,0.9,0.4,0.6,0.45,1.56163049998577,3.1,"exp2",0,0.2,0,1.5,1.6,2.4,0.8,0.5,0.2
"p302","up_down_width","match",49,4,2,1.18315120000625,0.6,0.25,0.15,0.5,5.72635099999025,2.05,"exp2",-2,-0.1,-0.5,0.6,1,0.3,-0.7,-0.4,0.1
"p302","up_down_width","initial",50,3,2,1.03096309999819,0.7,0.25,0.1,0.25,1.78960029999143,1.65,"exp2",-1,-0.15,-0.333333333333333,0.4,0.75,0.2,-0.55,-0.6,0.15
"p302","up_down_width","match",51,5,5,1.94937330001267,0.525,0.25,0.1,0.45,2.78203509998275,2.35,"exp2",0,-0.15,0,0.4,1.25,0.5,-0.75,-0.6,0.15
"p302","up_down_width","initial",52,5,5,1.61727640000754,0.7,0.25,0.2,0.55,3.84015620002174,3.05,"exp2",0,-0.0499999999999999,0,0.8,1.25,1,-0.25,-0.2,0.0499999999999999
"p302","up_down_width","initial",1,5,5,1.64208449999569,1.1,0.25,0.25,0.55,2.96746670000721,4.65,"exp2",0,5.55111512312578e-17,0,1,1.25,1.25,2.22044604925031e-16,2.22044604925031e-16,5.55111512312578e-17
"p302","up_down_width","initial",2,5,5,1.42110170001979,0.9,0.25,0.3,0.25,1.41236159999971,3.85,"exp2",0,0.05,0,1.2,1.25,1.5,0.25,0.2,0.05
"p302","up_down_width","initial",3,3,2,1.09955919999629,0.7,0.25,0.15,0.3,1.6154111000069,1.65,"exp2",-1,-0.1,-0.333333333333333,0.6,0.75,0.3,-0.45,-0.4,0.1
"p302","up_down_width","match",4,5,5,1.57490479998523,0.675,0.25,0.2,0.45,2.48613870001282,2.95,"exp2",0,-0.0499999999999999,0,0.8,1.25,1,-0.25,-0.2,0.0499999999999999
"p302","up_down_width","match",5,5,6,1.71549390000291,0.8625,0.25,0.2,0.5,2.55909399999655,3.7,"exp2",1,-0.0499999999999999,0.2,0.8,1.25,1.2,-0.0499999999999996,-0.2,0.0499999999999999
"p302","up_down_width","initial",6,4,4,1.85744399999385,1.1,0.55,0.5,0.35,1.6700074999826,3.85,"exp2",0,-0.0500000000000001,0,0.909090909090909,2.2,2,-0.2,-0.0909090909090911,0.0500000000000001
"p302","up_down_width","match",7,4,3,1.68443229998229,0.6,0.25,0.3,0.25,1.63109209999675,2.05,"exp2",-1,0.05,-0.25,1.2,1,0.9,-0.1,0.2,0.05
"p302","up_down_width","initial",8,5,5,1.79955270001665,0.9,0.4,0.35,0.25,2.30184729999746,4,"exp2",0,-0.05,0,0.875,2,1.75,-0.25,-0.125,0.05
"p302","up_down_width","initial",9,5,4,1.30568369998946,0.9,0.55,0.45,0.3,1.29933830001391,4.15,"exp2",-1,-0.1,-0.2,0.818181818181818,2.75,1.8,-0.95,-0.181818181818182,0.1
"p302","up_down_width","initial",10,5,4,2.00913140000193,0.7,0.4,0.5,0.2,2.47176750001381,3.2,"exp2",-1,0.0999999999999999,-0.2,1.25,2,2,-2.22044604925031e-16,0.25,0.0999999999999999
"p302","up_down_width","initial",11,3,2,0.669610500015551,0.7,0.4,0.4,0.2,1.69792099998449,1.8,"exp2",-1,-5.55111512312578e-17,-0.333333333333333,1,1.2,0.8,-0.4,-1.38777878078145e-16,5.55111512312578e-17
"p302","up_down_width","initial",12,5,6,1.60064200000488,0.7,0.25,0.15,0.2,1.72846149999532,3.05,"exp2",1,-0.1,0.2,0.6,1.25,0.9,-0.35,-0.4,0.1
"p302","up_down_width","match",13,3,2,0.968098000012105,1.475,0.25,0.15,0.2,1.40831410000101,3.2,"exp2",-1,-0.1,-0.333333333333333,0.6,0.75,0.3,-0.45,-0.4,0.1
"p302","up_down_width","match",14,5,4,1.56315580001683,0.525,0.4,0.35,0.4,2.15572300000349,2.5,"exp2",-1,-0.05,-0.2,0.875,2,1.4,-0.6,-0.125,0.05
"p302","up_down_width","initial",15,3,2,0.782584800006589,0.9,0.25,0.2,0.35,2.33422450002399,2.05,"exp2",-1,-0.05,-0.333333333333333,0.8,0.75,0.4,-0.35,-0.2,0.05
"p302","up_down_width","initial",16,4,3,1.64037030001055,1.1,0.25,0.15,0.5,4.59747509998851,3.55,"exp2",-1,-0.0999999999999999,-0.25,0.6,1,0.45,-0.55,-0.4,0.0999999999999999
"p302","up_down_width","initial",17,4,3,1.69058429999859,1.1,0.4,0.4,0.35,1.62162520000129,3.7,"exp2",-1,-5.55111512312578e-17,-0.25,1,1.6,1.2,-0.4,-1.38777878078145e-16,5.55111512312578e-17
"p302","up_down_width","match",18,4,3,1.89048440000624,0.466666666666667,0.4,0.45,0.25,2.66077449999284,1.8,"exp2",-1,0.0499999999999999,-0.25,1.125,1.6,1.35,-0.25,0.125,0.0499999999999999
"p302","up_down_width","match",19,4,2,0.86615270000766,0.466666666666667,0.25,0.2,0.4,5.18262479998521,1.65,"exp2",-2,-0.0499999999999999,-0.5,0.8,1,0.4,-0.6,-0.2,0.0499999999999999
"p302","up_down_width","initial",20,4,3,1.87246709997999,0.9,0.55,0.55,0.5,2.21237690001726,3.25,"exp2",-1,0,-0.25,1,2.2,1.65,-0.55,0,0
"p302","up_down_width","initial",21,3,2,0.927340599999297,0.7,0.55,0.6,0.45,1.6097516999871,1.95,"exp2",-1,0.05,-0.333333333333333,1.09090909090909,1.65,1.2,-0.45,0.090909090909091,0.05
"p302","up_down_width","match",22,3,2,0.844420400011586,1.4,0.55,0.55,0.2,4.68124309999985,3.35,"exp2",-1,-1.11022302462516e-16,-0.333333333333333,1,1.65,1.1,-0.55,-2.01858731750028e-16,1.11022302462516e-16
"p302","up_down_width","match",23,3,3,1.55276550000417,2.2,0.4,0.45,0.25,2.62635189999128,4.8,"exp2",0,0.0499999999999999,0,1.125,1.2,1.35,0.15,0.125,0.0499999999999999
"p302","up_down_width","initial",24,4,4,0.96614919998683,0.7,0.4,0.4,0.2,1.90273750000051,2.5,"exp2",0,-5.55111512312578e-17,0,1,1.6,1.6,-2.22044604925031e-16,-1.38777878078145e-16,5.55111512312578e-17
"p302","up_down_width","initial",25,3,3,1.09929199999897,0.9,0.4,0.45,0.2,4.12639229997876,2.2,"exp2",0,0.0499999999999999,0,1.125,1.2,1.35,0.15,0.125,0.0499999999999999
"p302","up_down_width","match",26,5,5,2.01840530001209,0.525,0.25,0.15,0.5,3.29683320000186,2.35,"exp2",0,-0.0999999999999999,0,0.6,1.25,0.75,-0.5,-0.4,0.0999999999999999
"p302","up_down_width","match",27,4,4,2.79295069997897,0.6,0.4,0.3,0.2,1.7054167999886,2.2,"exp2",0,-0.1,0,0.75,1.6,1.2,-0.4,-0.25,0.1
"p302","up_down_width","match",28,3,3,1.26609050002298,2.2,0.25,0.2,0.3,2.09370500000659,4.65,"exp2",0,-0.05,0,0.8,0.75,0.6,-0.15,-0.2,0.05
"p302","up_down_width","initial",29,4,4,1.48291970000719,0.9,0.4,0.3,0.45,1.99914810000337,3.1,"exp2",0,-0.1,0,0.75,1.6,1.2,-0.4,-0.25,0.1
"p302","up_down_width","match",30,3,2,0.860920200007968,1.4,0.25,0.2,0.55,3.19381830000202,3.05,"exp2",-1,-0.0499999999999999,-0.333333333333333,0.8,0.75,0.4,-0.35,-0.2,0.0499999999999999
"p302","up_down_width","match",31,5,4,1.6929726000235,0.675,0.55,0.55,0.4,1.75172749999911,3.25,"exp2",-1,0,-0.2,1,2.75,2.2,-0.55,0,0
"p302","up_down_width","initial",32,3,2,0.869438300025649,1.1,0.4,0.45,0.4,2.40126929999678,2.6,"exp2",-1,0.05,-0.333333333333333,1.125,1.2,0.9,-0.3,0.125,0.05
"p302","up_down_width","initial",33,3,2,1.89723380000214,1.1,0.55,0.6,0.4,2.31643479998456,2.75,"exp2",-1,0.05,-0.333333333333333,1.09090909090909,1.65,1.2,-0.45,0.090909090909091,0.05
"p302","up_down_width","match",34,3,2,0.685167500021635,1.8,0.4,0.45,0.2,2.04876770000556,4,"exp2",-1,0.0499999999999999,-0.333333333333333,1.125,1.2,0.9,-0.3,0.125,0.0499999999999999
